

 + Main results

   HIT=	5769,6 	MPa
   EIT=	229,37 	GPa
   E*=	252,06 	GPa

 + Hypothesis

   Poisson's ratio(nu)=	0,30 

 + Additional results

   HVIT=	534,32 	 Vickers
   CIT 0,001/30/5=	3,02 	%
   nIT=	18,69 %
   Fmax=	1,00 	mN
   hmax=	79,18 	nm
   S=	0,1004 	mN/nm
   F/S²=	99,2617 	nm²/mN
   hc=	71,68 	nm
   hr=	69,21 	nm
   hp=	64,47 	nm
   m=	1,4759 
   Epsilon=	0,75 
   R2=	1,000
   Ap=	173463,34 	nm²
   Welast=	5,85 pJ
   Wplast=	25,43 pJ
   Wtotal=	31,28 pJ
   Er=	206,64 	GPa

Measured values
Time (s)	Pd (nm)	Fn (mN)	FnRef (mN)	SegmentID

0	0	0	0,5004	0
0,0646	1,8524	0,0007	0,5004	1
0,1292	3,4285	0,0022	0,5004	1
0,1938	4,6695	0,0046	0,5004	1
0,2584	5,5204	0,008	0,5004	1
0,323	6,2652	0,0114	0,5004	1
0,3876	6,8934	0,0147	0,5005	1
0,4522	7,3315	0,017	0,5005	1
0,5168	7,7043	0,0191	0,5004	1
0,5814	8,02	0,0209	0,5004	1
0,646	8,4463	0,0228	0,5004	1
0,7106	8,9223	0,0249	0,5004	1
0,7752	9,4231	0,0271	0,5004	1
0,8398	9,847	0,0292	0,5004	1
0,9044	10,2212	0,0314	0,5004	1
0,969	10,5718	0,0336	0,5004	1
1,0336	10,9289	0,0358	0,5004	1
1,0982	11,2919	0,038	0,5004	1
1,1628	11,656	0,04	0,5004	1
1,2274	12,0389	0,0422	0,5004	1
1,292	12,4475	0,0444	0,5004	1
1,3566	12,7882	0,0465	0,5004	1
1,4212	13,1072	0,0487	0,5004	1
1,4858	13,4014	0,0509	0,5004	1
1,5504	13,7389	0,053	0,5004	1
1,615	14,0783	0,0551	0,5004	1
1,6796	14,3831	0,0573	0,5004	1
1,7442	14,6626	0,0595	0,5004	1
1,8088	14,9248	0,0618	0,5004	1
1,8734	15,1513	0,0639	0,5004	1
1,938	15,3574	0,066	0,5004	1
2,0026	15,5488	0,0682	0,5004	1
2,0672	15,7329	0,0704	0,5004	1
2,1318	15,9232	0,0726	0,5004	1
2,1964	16,1197	0,0747	0,5004	1
2,261	16,301	0,0768	0,5004	1
2,3256	16,4928	0,0789	0,5004	1
2,3902	16,7022	0,0812	0,5004	1
2,4548	16,9318	0,0833	0,5004	1
2,5194	17,1729	0,0853	0,5004	1
2,584	17,4324	0,0875	0,5004	1
2,6486	17,6823	0,0897	0,5004	1
2,7132	17,915	0,0919	0,5004	1
2,7778	18,0923	0,094	0,5004	1
2,8424	18,2788	0,0962	0,5003	1
2,907	18,4726	0,0984	0,5003	1
2,9716	18,6878	0,1005	0,5003	1
3,0362	18,883	0,1026	0,5003	1
3,1008	19,0621	0,1048	0,5004	1
3,1654	19,23	0,107	0,5004	1
3,23	19,4418	0,1091	0,5004	1
3,2946	19,7042	0,1111	0,5003	1
3,3592	20,0135	0,1133	0,5003	1
3,4238	20,3095	0,1154	0,5003	1
3,4884	20,5753	0,1176	0,5004	1
3,553	20,8526	0,1197	0,5004	1
3,6176	21,1421	0,1219	0,5004	1
3,6822	21,4577	0,124	0,5004	1
3,7468	21,7242	0,1262	0,5004	1
3,8114	21,9772	0,1284	0,5004	1
3,876	22,2546	0,1305	0,5004	1
3,9406	22,5601	0,1326	0,5004	1
4,0052	22,8767	0,1347	0,5003	1
4,0698	23,1294	0,137	0,5003	1
4,1344	23,357	0,1392	0,5003	1
4,199	23,5625	0,1414	0,5003	1
4,2636	23,7536	0,1435	0,5003	1
4,3282	23,9539	0,1456	0,5004	1
4,3928	24,1664	0,1479	0,5004	1
4,4574	24,3603	0,15	0,5004	1
4,522	24,5412	0,1522	0,5004	1
4,5866	24,7014	0,1543	0,5004	1
4,6512	24,859	0,1565	0,5004	1
4,7158	25,0186	0,1586	0,5004	1
4,7804	25,1866	0,1607	0,5004	1
4,845	25,3525	0,1629	0,5004	1
4,9096	25,5161	0,1651	0,5004	1
4,9742	25,6729	0,1672	0,5004	1
5,0388	25,8178	0,1694	0,5004	1
5,1034	25,9532	0,1716	0,5003	1
5,168	26,0594	0,1737	0,5003	1
5,2326	26,1637	0,1759	0,5003	1
5,2972	26,2661	0,1781	0,5003	1
5,3618	26,3941	0,1802	0,5003	1
5,4264	26,5565	0,1823	0,5003	1
5,491	26,7671	0,1843	0,5003	1
5,5556	27,0325	0,1865	0,5003	1
5,6202	27,2866	0,1886	0,5003	1
5,6848	27,4961	0,1908	0,5003	1
5,7494	27,6594	0,193	0,5004	1
5,814	27,8111	0,1952	0,5004	1
5,8786	27,9719	0,1974	0,5004	1
5,9432	28,1835	0,1994	0,5004	1
6,0078	28,43	0,2015	0,5003	1
6,0724	28,7489	0,2037	0,5003	1
6,137	29,0502	0,2058	0,5003	1
6,2016	29,3375	0,2079	0,5003	1
6,2662	29,5955	0,2102	0,5003	1
6,3308	29,8284	0,2124	0,5003	1
6,3954	30,0338	0,2145	0,5003	1
6,46	30,2454	0,2167	0,5003	1
6,5246	30,4667	0,2188	0,5003	1
6,5892	30,703	0,2209	0,5003	1
6,6538	30,9124	0,223	0,5003	1
6,7184	31,1112	0,2252	0,5003	1
6,783	31,2967	0,2275	0,5003	1
6,8476	31,4604	0,2296	0,5003	1
6,9122	31,6194	0,2317	0,5003	1
6,9768	31,7919	0,2339	0,5003	1
7,0414	31,984	0,2361	0,5004	1
7,106	32,1846	0,2382	0,5003	1
7,1706	32,3619	0,2403	0,5003	1
7,2352	32,5328	0,2425	0,5003	1
7,2998	32,6983	0,2448	0,5004	1
7,3644	32,8291	0,2469	0,5004	1
7,429	32,9656	0,249	0,5004	1
7,4936	33,1093	0,2513	0,5004	1
7,5582	33,2635	0,2534	0,5004	1
7,6228	33,4122	0,2555	0,5003	1
7,6874	33,5485	0,2577	0,5003	1
7,752	33,6747	0,2599	0,5003	1
7,8166	33,8027	0,262	0,5003	1
7,8812	33,9431	0,264	0,5003	1
7,9458	34,0757	0,2662	0,5003	1
8,0104	34,2049	0,2683	0,5003	1
8,075	34,3324	0,2705	0,5003	1
8,1396	34,4775	0,2727	0,5004	1
8,2042	34,634	0,2748	0,5004	1
8,2688	34,7948	0,277	0,5003	1
8,3334	34,9374	0,2792	0,5004	1
8,398	35,0631	0,2813	0,5004	1
8,4626	35,1909	0,2835	0,5004	1
8,5272	35,333	0,2857	0,5004	1
8,5918	35,4949	0,2877	0,5004	1
8,6564	35,6619	0,2899	0,5004	1
8,721	35,8282	0,2921	0,5003	1
8,7856	35,991	0,2942	0,5003	1
8,8502	36,153	0,2963	0,5003	1
8,9148	36,3128	0,2985	0,5003	1
8,9794	36,4661	0,3007	0,5004	1
9,044	36,6151	0,3028	0,5004	1
9,1086	36,7644	0,3049	0,5004	1
9,1732	36,9289	0,3071	0,5004	1
9,2378	37,1276	0,3093	0,5003	1
9,3024	37,3518	0,3113	0,5003	1
9,367	37,6089	0,3135	0,5003	1
9,4316	37,839	0,3156	0,5003	1
9,4962	38,0411	0,3178	0,5004	1
9,5608	38,2017	0,32	0,5004	1
9,6254	38,3555	0,3222	0,5003	1
9,69	38,5025	0,3243	0,5003	1
9,7546	38,6339	0,3265	0,5003	1
9,8192	38,758	0,3287	0,5003	1
9,8838	38,8719	0,3308	0,5003	1
9,9484	39,0201	0,333	0,5003	1
10,013	39,1986	0,3351	0,5004	1
10,0776	39,452	0,3372	0,5004	1
10,1422	39,7498	0,3392	0,5003	1
10,2068	40,0669	0,3413	0,5003	1
10,2714	40,3484	0,3436	0,5003	1
10,336	40,5815	0,3457	0,5003	1
10,4006	40,7758	0,3479	0,5003	1
10,4652	40,954	0,3501	0,5003	1
10,5298	41,1294	0,3523	0,5004	1
10,5944	41,3016	0,3545	0,5004	1
10,659	41,447	0,3566	0,5003	1
10,7236	41,5861	0,3588	0,5003	1
10,7882	41,7188	0,361	0,5003	1
10,8528	41,8381	0,3632	0,5003	1
10,9174	41,9528	0,3653	0,5003	1
10,982	42,0637	0,3674	0,5003	1
11,0466	42,179	0,3696	0,5003	1
11,1112	42,3009	0,3718	0,5004	1
11,1758	42,4464	0,3739	0,5004	1
11,2404	42,6152	0,376	0,5004	1
11,305	42,7982	0,3781	0,5004	1
11,3696	42,9862	0,3803	0,5004	1
11,4342	43,1578	0,3824	0,5003	1
11,4988	43,3149	0,3846	0,5003	1
11,5634	43,4651	0,3868	0,5003	1
11,628	43,6137	0,3889	0,5003	1
11,6926	43,7602	0,391	0,5003	1
11,7572	43,9083	0,3932	0,5004	1
11,8218	44,0558	0,3954	0,5004	1
11,8864	44,2017	0,3975	0,5004	1
11,951	44,3324	0,3997	0,5004	1
12,0156	44,4564	0,4019	0,5004	1
12,0802	44,5716	0,404	0,5003	1
12,1448	44,6741	0,4062	0,5003	1
12,2094	44,7728	0,4083	0,5003	1
12,274	44,883	0,4105	0,5003	1
12,3386	44,99	0,4126	0,5003	1
12,4032	45,0946	0,4148	0,5003	1
12,4678	45,1916	0,417	0,5003	1
12,5324	45,2903	0,4192	0,5003	1
12,597	45,3909	0,4213	0,5003	1
12,6616	45,5202	0,4234	0,5003	1
12,7262	45,6579	0,4255	0,5003	1
12,7908	45,806	0,4278	0,5003	1
12,8554	45,9307	0,4298	0,5003	1
12,92	46,0471	0,4319	0,5003	1
12,9846	46,1536	0,4341	0,5003	1
13,0492	46,276	0,4363	0,5003	1
13,1138	46,4069	0,4385	0,5003	1
13,1784	46,5509	0,4406	0,5003	1
13,243	46,6875	0,4428	0,5003	1
13,3076	46,8196	0,4449	0,5003	1
13,3722	46,947	0,447	0,5003	1
13,4368	47,0733	0,4492	0,5003	1
13,5014	47,1985	0,4514	0,5003	1
13,566	47,3152	0,4536	0,5003	1
13,6306	47,4238	0,4557	0,5003	1
13,6952	47,5234	0,4578	0,5003	1
13,7598	47,6367	0,46	0,5003	1
13,8244	47,7515	0,4622	0,5003	1
13,889	47,8668	0,4643	0,5003	1
13,9536	47,998	0,4664	0,5003	1
14,0182	48,1347	0,4685	0,5003	1
14,0828	48,2772	0,4707	0,5004	1
14,1474	48,4141	0,4729	0,5003	1
14,212	48,5501	0,475	0,5003	1
14,2766	48,6913	0,4772	0,5003	1
14,3412	48,8394	0,4793	0,5003	1
14,4058	48,9921	0,4815	0,5003	1
14,4704	49,1511	0,4836	0,5003	1
14,535	49,2957	0,4858	0,5003	1
14,5996	49,4281	0,488	0,5003	1
14,6642	49,5531	0,4902	0,5003	1
14,7288	49,6832	0,4923	0,5003	1
14,7934	49,8197	0,4943	0,5003	1
14,858	49,9854	0,4965	0,5003	1
14,9226	50,1594	0,4987	0,5003	1
14,9872	50,3425	0,5008	0,5003	1
15,0518	50,5187	0,5029	0,5003	1
15,1164	50,6848	0,5051	0,5003	1
15,181	50,8261	0,5074	0,5003	1
15,2456	50,9614	0,5095	0,5003	1
15,3102	51,0934	0,5116	0,5003	1
15,3748	51,2214	0,5139	0,5003	1
15,4394	51,3468	0,516	0,5004	1
15,504	51,4704	0,5181	0,5004	1
15,5686	51,5915	0,5202	0,5003	1
15,6332	51,7152	0,5224	0,5003	1
15,6978	51,8413	0,5246	0,5003	1
15,7624	51,9526	0,5268	0,5003	1
15,827	52,0654	0,5289	0,5003	1
15,8916	52,1811	0,531	0,5003	1
15,9562	52,2958	0,5332	0,5003	1
16,0208	52,4168	0,5353	0,5003	1
16,0854	52,5512	0,5374	0,5003	1
16,15	52,7083	0,5396	0,5003	1
16,2146	52,8677	0,5418	0,5003	1
16,2792	53,0128	0,544	0,5003	1
16,3438	53,1498	0,5461	0,5003	1
16,4084	53,2832	0,5482	0,5003	1
16,473	53,4171	0,5503	0,5003	1
16,5376	53,5531	0,5525	0,5003	1
16,6022	53,69	0,5548	0,5003	1
16,6668	53,8072	0,5568	0,5003	1
16,7314	53,9287	0,559	0,5003	1
16,796	54,0548	0,5612	0,5003	1
16,8606	54,1863	0,5633	0,5003	1
16,9252	54,3255	0,5654	0,5003	1
16,9898	54,4762	0,5676	0,5003	1
17,0544	54,6266	0,5697	0,5003	1
17,119	54,7668	0,5719	0,5003	1
17,1836	54,883	0,5741	0,5003	1
17,2482	54,9894	0,5763	0,5003	1
17,3128	55,0929	0,5785	0,5003	1
17,3774	55,1983	0,5806	0,5003	1
17,442	55,3205	0,5827	0,5003	1
17,5066	55,4555	0,5848	0,5003	1
17,5712	55,6233	0,5869	0,5003	1
17,6358	55,786	0,5891	0,5003	1
17,7004	55,9447	0,5913	0,5003	1
17,765	56,1194	0,5934	0,5003	1
17,8296	56,2915	0,5956	0,5003	1
17,8942	56,4608	0,5977	0,5003	1
17,9588	56,6086	0,5999	0,5003	1
18,0234	56,7467	0,602	0,5003	1
18,088	56,8714	0,6042	0,5003	1
18,1526	56,9908	0,6064	0,5003	1
18,2172	57,1056	0,6085	0,5003	1
18,2818	57,2112	0,6107	0,5003	1
18,3464	57,3176	0,6129	0,5003	1
18,411	57,4245	0,6151	0,5003	1
18,4756	57,533	0,6171	0,5003	1
18,5402	57,6487	0,6193	0,5003	1
18,6048	57,7674	0,6215	0,5003	1
18,6694	57,8684	0,6237	0,5003	1
18,734	57,9602	0,6258	0,5003	1
18,7986	58,0438	0,6279	0,5003	1
18,8632	58,1335	0,6301	0,5003	1
18,9278	58,2261	0,6323	0,5003	1
18,9924	58,3223	0,6344	0,5003	1
19,057	58,4184	0,6366	0,5003	1
19,1216	58,5137	0,6387	0,5003	1
19,1862	58,6073	0,6408	0,5003	1
19,2508	58,7115	0,643	0,5003	1
19,3154	58,8182	0,6452	0,5003	1
19,38	58,9239	0,6473	0,5003	1
19,4446	59,0284	0,6494	0,5003	1
19,5092	59,1342	0,6516	0,5003	1
19,5738	59,2504	0,6537	0,5003	1
19,6384	59,3626	0,6559	0,5003	1
19,703	59,4713	0,658	0,5003	1
19,7676	59,566	0,6602	0,5003	1
19,8322	59,6603	0,6624	0,5003	1
19,8968	59,7541	0,6644	0,5003	1
19,9614	59,8677	0,6667	0,5004	1
20,026	59,9787	0,6689	0,5004	1
20,0906	60,0842	0,671	0,5004	1
20,1552	60,1991	0,6731	0,5004	1
20,2198	60,3232	0,6752	0,5003	1
20,2844	60,465	0,6774	0,5004	1
20,349	60,6176	0,6795	0,5003	1
20,4136	60,7746	0,6817	0,5003	1
20,4782	60,9354	0,6838	0,5004	1
20,5428	61,1068	0,686	0,5004	1
20,6074	61,2831	0,6881	0,5004	1
20,672	61,4555	0,6903	0,5004	1
20,7366	61,6106	0,6925	0,5003	1
20,8012	61,7529	0,6946	0,5003	1
20,8658	61,9096	0,6967	0,5003	1
20,9304	62,0593	0,6989	0,5003	1
20,995	62,201	0,7011	0,5003	1
21,0596	62,3187	0,7032	0,5003	1
21,1242	62,4295	0,7054	0,5003	1
21,1888	62,5323	0,7076	0,5003	1
21,2534	62,6295	0,7098	0,5003	1
21,318	62,726	0,7119	0,5003	1
21,3826	62,8235	0,714	0,5003	1
21,4472	62,9222	0,7162	0,5003	1
21,5118	63,0247	0,7184	0,5003	1
21,5764	63,1417	0,7205	0,5003	1
21,641	63,2584	0,7226	0,5003	1
21,7056	63,3737	0,7248	0,5004	1
21,7702	63,4751	0,727	0,5004	1
21,8348	63,5774	0,7291	0,5004	1
21,8994	63,6805	0,7312	0,5004	1
21,964	63,7824	0,7334	0,5004	1
22,0286	63,8814	0,7356	0,5004	1
22,0932	63,9769	0,7377	0,5004	1
22,1578	64,0677	0,7399	0,5004	1
22,2224	64,1621	0,742	0,5004	1
22,287	64,2645	0,7442	0,5004	1
22,3516	64,3681	0,7463	0,5004	1
22,4162	64,4765	0,7485	0,5004	1
22,4808	64,5984	0,7506	0,5003	1
22,5454	64,7236	0,7527	0,5003	1
22,61	64,8487	0,7548	0,5003	1
22,6746	64,9657	0,7571	0,5003	1
22,7392	65,0795	0,7593	0,5003	1
22,8038	65,1909	0,7614	0,5003	1
22,8684	65,2958	0,7636	0,5003	1
22,933	65,3947	0,7657	0,5003	1
22,9976	65,4877	0,7679	0,5003	1
23,0622	65,5885	0,77	0,5003	1
23,1268	65,6936	0,7721	0,5003	1
23,1914	65,8043	0,7743	0,5003	1
23,256	65,9129	0,7765	0,5003	1
23,3206	66,0157	0,7787	0,5003	1
23,3852	66,107	0,7808	0,5003	1
23,4498	66,2065	0,7829	0,5003	1
23,5144	66,3098	0,785	0,5003	1
23,579	66,4178	0,7872	0,5003	1
23,6436	66,535	0,7894	0,5003	1
23,7082	66,6632	0,7915	0,5003	1
23,7728	66,8357	0,7936	0,5003	1
23,8374	67,0026	0,7958	0,5003	1
23,902	67,1633	0,7979	0,5003	1
23,9666	67,2627	0,8001	0,5003	1
24,0312	67,3607	0,8023	0,5003	1
24,0958	67,4572	0,8045	0,5003	1
24,1604	67,554	0,8066	0,5003	1
24,225	67,6513	0,8087	0,5004	1
24,2896	67,7493	0,8109	0,5004	1
24,3542	67,8533	0,8131	0,5004	1
24,4188	67,955	0,8153	0,5004	1
24,4834	68,0485	0,8174	0,5004	1
24,548	68,1422	0,8195	0,5004	1
24,6126	68,24	0,8216	0,5004	1
24,6772	68,3541	0,8238	0,5004	1
24,7418	68,4681	0,826	0,5004	1
24,8064	68,5795	0,8282	0,5003	1
24,871	68,6675	0,8303	0,5003	1
24,9356	68,7494	0,8325	0,5003	1
25,0002	68,8262	0,8347	0,5003	1
25,0648	68,9196	0,8367	0,5003	1
25,1294	69,0203	0,8389	0,5003	1
25,194	69,1298	0,8411	0,5003	1
25,2586	69,227	0,8432	0,5003	1
25,3232	69,3212	0,8453	0,5003	1
25,3878	69,4125	0,8475	0,5003	1
25,4524	69,4959	0,8497	0,5003	1
25,517	69,5787	0,8518	0,5003	1
25,5816	69,6648	0,8539	0,5003	1
25,6462	69,7608	0,8561	0,5003	1
25,7108	69,861	0,8583	0,5003	1
25,7754	69,963	0,8604	0,5003	1
25,84	70,0667	0,8626	0,5003	1
25,9046	70,1711	0,8647	0,5003	1
25,9692	70,2723	0,8669	0,5003	1
26,0338	70,3688	0,8691	0,5003	1
26,0984	70,4612	0,8712	0,5002	1
26,163	70,5525	0,8734	0,5003	1
26,2276	70,6472	0,8755	0,5003	1
26,2922	70,7465	0,8776	0,5003	1
26,3568	70,8525	0,8798	0,5003	1
26,4214	70,9588	0,882	0,5003	1
26,486	71,0641	0,8842	0,5003	1
26,5506	71,1657	0,8863	0,5003	1
26,6152	71,2657	0,8884	0,5003	1
26,6798	71,3638	0,8906	0,5003	1
26,7444	71,458	0,8928	0,5003	1
26,809	71,5508	0,8949	0,5003	1
26,8736	71,6465	0,897	0,5003	1
26,9382	71,7502	0,8992	0,5003	1
27,0028	71,8598	0,9013	0,5003	1
27,0674	71,9758	0,9034	0,5003	1
27,132	72,0939	0,9056	0,5003	1
27,1966	72,2141	0,9078	0,5003	1
27,2612	72,342	0,9099	0,5003	1
27,3258	72,4662	0,9121	0,5003	1
27,3904	72,5843	0,9142	0,5003	1
27,455	72,7031	0,9164	0,5003	1
27,5196	72,8232	0,9185	0,5002	1
27,5842	72,9464	0,9207	0,5003	1
27,6488	73,0579	0,9228	0,5003	1
27,7134	73,1669	0,925	0,5003	1
27,778	73,2809	0,9271	0,5003	1
27,8426	73,4044	0,9293	0,5003	1
27,9072	73,5311	0,9315	0,5003	1
27,9718	73,6438	0,9336	0,5003	1
28,0364	73,752	0,9358	0,5003	1
28,101	73,8566	0,9379	0,5004	1
28,1656	73,9654	0,9401	0,5004	1
28,2302	74,0807	0,9422	0,5004	1
28,2948	74,2034	0,9443	0,5004	1
28,3594	74,3182	0,9465	0,5004	1
28,424	74,4221	0,9487	0,5004	1
28,4886	74,5087	0,9508	0,5004	1
28,5532	74,603	0,953	0,5004	1
28,6178	74,6988	0,9552	0,5004	1
28,6824	74,7942	0,9574	0,5004	1
28,747	74,893	0,9595	0,5004	1
28,8116	74,9929	0,9615	0,5004	1
28,8762	75,0923	0,9638	0,5004	1
28,9408	75,1942	0,966	0,5004	1
29,0054	75,2984	0,9681	0,5004	1
29,07	75,4107	0,9701	0,5003	1
29,1346	75,5278	0,9723	0,5004	1
29,1992	75,649	0,9746	0,5004	1
29,2638	75,7758	0,9767	0,5003	1
29,3284	75,9166	0,9787	0,5003	1
29,393	76,075	0,9809	0,5003	1
29,4576	76,2467	0,9831	0,5003	1
29,5222	76,4094	0,9852	0,5003	1
29,5868	76,5519	0,9874	0,5003	1
29,6514	76,6758	0,9896	0,5003	2
29,716	76,7933	0,9917	0,5003	2
29,7806	76,9058	0,9939	0,5004	2
29,8452	77,0131	0,996	0,5004	2
29,9098	77,118	0,998	0,5004	2
29,9744	77,2217	0,9995	0,5003	2
30,039	77,3155	1,0004	0,5003	2
30,1036	77,4017	1,0009	0,5003	2
30,1682	77,468	1,0008	0,5003	2
30,2328	77,5252	1,0008	0,5003	2
30,2974	77,5735	1,0008	0,5002	2
30,362	77,6099	1,0009	0,5002	2
30,4266	77,6456	1,0009	0,5002	2
30,4912	77,681	1,0008	0,5003	2
30,5558	77,7233	1,0008	0,5003	2
30,6204	77,7685	1,0008	0,5003	2
30,685	77,8177	1,0008	0,5003	2
30,7496	77,86	1,0008	0,5003	2
30,8142	77,9035	1,0008	0,5003	2
30,8788	77,9583	1,0008	0,5003	2
30,9434	78,0089	1,0008	0,5003	2
31,008	78,0557	1,0009	0,5003	2
31,0726	78,09	1,0008	0,5003	2
31,1372	78,1242	1,0008	0,5003	2
31,2018	78,1581	1,0008	0,5003	2
31,2664	78,1906	1,0009	0,5003	2
31,331	78,2228	1,0008	0,5004	2
31,3956	78,2549	1,0008	0,5004	2
31,4602	78,2751	1,0009	0,5004	2
31,5248	78,2956	1,0009	0,5004	2
31,5894	78,318	1,0008	0,5004	2
31,654	78,347	1,0008	0,5004	2
31,7186	78,3753	1,0008	0,5004	2
31,7832	78,3991	1,0008	0,5004	2
31,8478	78,4147	1,0008	0,5004	2
31,9124	78,4281	1,0008	0,5004	2
31,977	78,4451	1,0008	0,5004	2
32,0416	78,4629	1,0008	0,5004	2
32,1062	78,4816	1,0008	0,5004	2
32,1708	78,5056	1,0008	0,5003	2
32,2354	78,5211	1,0008	0,5003	2
32,3	78,5294	1,0008	0,5003	2
32,3646	78,5395	1,0008	0,5004	2
32,4292	78,5552	1,0008	0,5004	2
32,4938	78,5778	1,0007	0,5004	2
32,5584	78,5904	1,0008	0,5004	2
32,623	78,6014	1,0008	0,5004	2
32,6876	78,6114	1,0008	0,5004	2
32,7522	78,6355	1,0008	0,5004	2
32,8168	78,6595	1,0008	0,5004	2
32,8814	78,6736	1,0009	0,5004	2
32,946	78,6875	1,0008	0,5004	2
33,0106	78,7001	1,0008	0,5004	2
33,0752	78,7062	1,0008	0,5004	2
33,1398	78,7201	1,0008	0,5004	2
33,2044	78,7387	1,0008	0,5004	2
33,269	78,7566	1,0008	0,5004	2
33,3336	78,7714	1,0008	0,5004	2
33,3982	78,7833	1,0008	0,5004	2
33,4628	78,8006	1,0008	0,5004	2
33,5274	78,822	1,0008	0,5004	2
33,592	78,8488	1,0008	0,5004	2
33,6566	78,8728	1,0008	0,5004	2
33,7212	78,8933	1,0008	0,5004	2
33,7858	78,9071	1,0008	0,5004	2
33,8504	78,9341	1,0007	0,5004	2
33,915	78,9615	1,0007	0,5004	2
33,9796	78,9776	1,0007	0,5005	2
34,0442	78,9831	1,0008	0,5005	2
34,1088	78,9852	1,0009	0,5005	2
34,1734	78,9967	1,0009	0,5005	2
34,238	79,0095	1,0008	0,5005	2
34,3026	79,0232	1,0008	0,5005	2
34,3672	79,0358	1,0008	0,5004	2
34,4318	79,0495	1,0008	0,5004	2
34,4964	79,0644	1,0008	0,5004	2
34,561	79,0735	1,0008	0,5005	2
34,6256	79,0792	1,0008	0,5005	3
34,6902	79,0804	1,0008	0,5005	3
34,7548	79,0844	1,0008	0,5004	3
34,8194	79,091	1,0008	0,5004	3
34,884	79,1028	1,0007	0,5004	3
34,9486	79,111	1,0002	0,5004	3
35,0132	79,114	0,9994	0,5004	3
35,0778	79,1009	0,9977	0,5005	3
35,1424	79,0891	0,9957	0,5004	3
35,207	79,0767	0,9936	0,5004	3
35,2716	79,0545	0,9915	0,5004	3
35,3362	79,0335	0,9893	0,5004	3
35,4008	79,0136	0,9871	0,5004	3
35,4654	78,9932	0,9849	0,5004	3
35,53	78,9768	0,9827	0,5004	3
35,5946	78,9652	0,9806	0,5004	3
35,6592	78,9431	0,9784	0,5004	3
35,7238	78,9179	0,9762	0,5004	3
35,7884	78,8891	0,9741	0,5004	3
35,853	78,8623	0,972	0,5004	3
35,9176	78,8353	0,9699	0,5004	3
35,9822	78,8068	0,9678	0,5004	3
36,0468	78,7797	0,9655	0,5004	3
36,1114	78,7551	0,9633	0,5004	3
36,176	78,7392	0,9612	0,5004	3
36,2406	78,7175	0,959	0,5004	3
36,3052	78,6931	0,9568	0,5004	3
36,3698	78,6756	0,9547	0,5004	3
36,4344	78,6553	0,9526	0,5004	3
36,499	78,6325	0,9505	0,5004	3
36,5636	78,6113	0,9483	0,5004	3
36,6282	78,5897	0,9461	0,5004	3
36,6928	78,5676	0,9439	0,5004	3
36,7574	78,5466	0,9418	0,5004	3
36,822	78,5265	0,9396	0,5004	3
36,8866	78,5081	0,9375	0,5004	3
36,9512	78,4946	0,9354	0,5004	3
37,0158	78,4815	0,9332	0,5004	3
37,0804	78,4656	0,9311	0,5004	3
37,145	78,447	0,9289	0,5004	3
37,2096	78,4257	0,9267	0,5004	3
37,2742	78,3958	0,9246	0,5004	3
37,3388	78,3696	0,9224	0,5004	3
37,4034	78,3465	0,9202	0,5004	3
37,468	78,3356	0,9181	0,5004	3
37,5326	78,321	0,916	0,5004	3
37,5972	78,3029	0,9138	0,5004	3
37,6618	78,2873	0,9116	0,5005	3
37,7264	78,2749	0,9095	0,5005	3
37,791	78,2668	0,9074	0,5005	3
37,8556	78,2405	0,9052	0,5005	3
37,9202	78,2119	0,903	0,5004	3
37,9848	78,1844	0,9009	0,5004	3
38,0494	78,1593	0,8987	0,5004	3
38,114	78,1361	0,8966	0,5004	3
38,1786	78,1168	0,8944	0,5005	3
38,2432	78,0962	0,8923	0,5005	3
38,3078	78,0752	0,8902	0,5005	3
38,3724	78,0565	0,888	0,5005	3
38,437	78,035	0,8858	0,5005	3
38,5016	78,0114	0,8836	0,5004	3
38,5662	77,9855	0,8815	0,5004	3
38,6308	77,9604	0,8793	0,5004	3
38,6954	77,9362	0,8771	0,5004	3
38,76	77,9134	0,875	0,5004	3
38,8246	77,8888	0,8729	0,5004	3
38,8892	77,861	0,8708	0,5004	3
38,9538	77,8485	0,8686	0,5004	3
39,0184	77,8356	0,8664	0,5004	3
39,083	77,814	0,8643	0,5004	3
39,1476	77,794	0,8621	0,5005	3
39,2122	77,7746	0,8599	0,5005	3
39,2768	77,755	0,8578	0,5005	3
39,3414	77,7292	0,8557	0,5005	3
39,406	77,7006	0,8535	0,5005	3
39,4706	77,6788	0,8514	0,5004	3
39,5352	77,6597	0,8492	0,5004	3
39,5998	77,643	0,8471	0,5004	3
39,6644	77,6121	0,845	0,5005	3
39,729	77,5784	0,8428	0,5005	3
39,7936	77,5414	0,8406	0,5005	3
39,8582	77,5263	0,8384	0,5005	3
39,9228	77,5117	0,8362	0,5005	3
39,9874	77,494	0,8342	0,5005	3
40,052	77,4651	0,832	0,5005	3
40,1166	77,4375	0,8299	0,5005	3
40,1812	77,4214	0,8277	0,5005	3
40,2458	77,4014	0,8255	0,5005	3
40,3104	77,3799	0,8233	0,5005	3
40,375	77,358	0,8212	0,5004	3
40,4396	77,3379	0,819	0,5004	3
40,5042	77,3191	0,8169	0,5004	3
40,5688	77,3026	0,8147	0,5004	3
40,6334	77,2881	0,8126	0,5005	3
40,698	77,2752	0,8104	0,5005	3
40,7626	77,2404	0,8083	0,5005	3
40,8272	77,2056	0,8061	0,5005	3
40,8918	77,1718	0,8039	0,5005	3
40,9564	77,1418	0,8018	0,5004	3
41,021	77,1149	0,7997	0,5004	3
41,0856	77,0933	0,7975	0,5004	3
41,1502	77,066	0,7954	0,5004	3
41,2148	77,0395	0,7932	0,5004	3
41,2794	77,0214	0,7911	0,5004	3
41,344	77,0039	0,7889	0,5004	3
41,4086	76,9852	0,7867	0,5004	3
41,4732	76,957	0,7846	0,5005	3
41,5378	76,9317	0,7825	0,5005	3
41,6024	76,9086	0,7802	0,5005	3
41,667	76,8855	0,7781	0,5005	3
41,7316	76,8607	0,776	0,5005	3
41,7962	76,8341	0,7739	0,5005	3
41,8608	76,8068	0,7717	0,5005	3
41,9254	76,7822	0,7695	0,5005	3
41,99	76,7619	0,7674	0,5005	3
42,0546	76,7396	0,7652	0,5004	3
42,1192	76,7161	0,7631	0,5004	3
42,1838	76,6907	0,7609	0,5004	3
42,2484	76,6725	0,7588	0,5004	3
42,313	76,6554	0,7566	0,5004	3
42,3776	76,6331	0,7544	0,5004	3
42,4422	76,6052	0,7523	0,5004	3
42,5068	76,5759	0,7502	0,5004	3
42,5714	76,5602	0,748	0,5004	3
42,636	76,5398	0,7458	0,5004	3
42,7006	76,5157	0,7437	0,5004	3
42,7652	76,4971	0,7415	0,5005	3
42,8298	76,4779	0,7393	0,5005	3
42,8944	76,4583	0,7372	0,5005	3
42,959	76,4295	0,7351	0,5005	3
43,0236	76,3999	0,7329	0,5005	3
43,0882	76,3701	0,7307	0,5004	3
43,1528	76,3513	0,7286	0,5004	3
43,2174	76,332	0,7265	0,5005	3
43,282	76,3043	0,7243	0,5004	3
43,3466	76,2783	0,7221	0,5004	3
43,4112	76,2526	0,72	0,5004	3
43,4758	76,2248	0,7179	0,5004	3
43,5404	76,2019	0,7157	0,5004	3
43,605	76,1813	0,7135	0,5004	3
43,6696	76,1509	0,7114	0,5004	3
43,7342	76,128	0,7092	0,5004	3
43,7988	76,1117	0,707	0,5004	3
43,8634	76,0834	0,7049	0,5004	3
43,928	76,0556	0,7028	0,5005	3
43,9926	76,0286	0,7006	0,5005	3
44,0572	75,9929	0,6984	0,5004	3
44,1218	75,9517	0,6963	0,5004	3
44,1864	75,9021	0,6942	0,5004	3
44,251	75,867	0,692	0,5004	3
44,3156	75,8378	0,6898	0,5004	3
44,3802	75,815	0,6877	0,5004	3
44,4448	75,7933	0,6855	0,5004	3
44,5094	75,774	0,6834	0,5004	3
44,574	75,7657	0,6812	0,5004	3
44,6386	75,742	0,6791	0,5004	3
44,7032	75,708	0,677	0,5005	3
44,7678	75,6717	0,6748	0,5004	3
44,8324	75,6466	0,6726	0,5004	3
44,897	75,6327	0,6705	0,5004	3
44,9616	75,609	0,6683	0,5004	3
45,0262	75,5832	0,6661	0,5004	3
45,0908	75,5551	0,664	0,5004	3
45,1554	75,5308	0,6618	0,5004	3
45,22	75,5086	0,6597	0,5004	3
45,2846	75,4898	0,6575	0,5004	3
45,3492	75,4768	0,6554	0,5004	3
45,4138	75,4634	0,6532	0,5005	3
45,4784	75,4422	0,6511	0,5005	3
45,543	75,4227	0,6489	0,5005	3
45,6076	75,4036	0,6468	0,5005	3
45,6722	75,3806	0,6447	0,5004	3
45,7368	75,3575	0,6425	0,5004	3
45,8014	75,3341	0,6402	0,5004	3
45,866	75,3024	0,6382	0,5005	3
45,9306	75,2733	0,636	0,5005	3
45,9952	75,2474	0,6339	0,5004	3
46,0598	75,2248	0,6317	0,5004	3
46,1244	75,2001	0,6295	0,5005	3
46,189	75,1717	0,6274	0,5005	3
46,2536	75,1498	0,6253	0,5004	3
46,3182	75,1286	0,6231	0,5004	3
46,3828	75,1058	0,621	0,5004	3
46,4474	75,0768	0,6188	0,5004	3
46,512	75,0456	0,6166	0,5004	3
46,5766	75,0146	0,6144	0,5004	3
46,6412	74,9839	0,6123	0,5004	3
46,7058	74,9537	0,6102	0,5005	3
46,7704	74,9261	0,608	0,5005	3
46,835	74,9002	0,6059	0,5005	3
46,8996	74,8758	0,6037	0,5004	3
46,9642	74,8498	0,6016	0,5004	3
47,0288	74,8287	0,5994	0,5004	3
47,0934	74,8137	0,5973	0,5004	3
47,158	74,7856	0,5951	0,5004	3
47,2226	74,7554	0,5929	0,5004	3
47,2872	74,7238	0,5908	0,5004	3
47,3518	74,6957	0,5886	0,5004	3
47,4164	74,6702	0,5864	0,5005	3
47,481	74,6503	0,5843	0,5004	3
47,5456	74,6367	0,5822	0,5004	3
47,6102	74,6251	0,58	0,5004	3
47,6748	74,6105	0,5779	0,5005	3
47,7394	74,5848	0,5757	0,5005	3
47,804	74,5528	0,5736	0,5004	3
47,8686	74,532	0,5715	0,5005	3
47,9332	74,5059	0,5693	0,5005	3
47,9978	74,4747	0,5671	0,5005	3
48,0624	74,4443	0,5649	0,5005	3
48,127	74,418	0,5628	0,5005	3
48,1916	74,3973	0,5606	0,5005	3
48,2562	74,3721	0,5585	0,5005	3
48,3208	74,3467	0,5563	0,5005	3
48,3854	74,3223	0,5542	0,5005	3
48,45	74,2999	0,552	0,5005	3
48,5146	74,2784	0,5499	0,5005	3
48,5792	74,2574	0,5478	0,5005	3
48,6438	74,2312	0,5456	0,5005	3
48,7084	74,2035	0,5433	0,5004	3
48,773	74,1821	0,5412	0,5005	3
48,8376	74,1607	0,5391	0,5005	3
48,9022	74,1393	0,537	0,5005	3
48,9668	74,1174	0,5348	0,5005	3
49,0314	74,0891	0,5326	0,5005	3
49,096	74,0542	0,5305	0,5005	3
49,1606	74,0228	0,5284	0,5005	3
49,2252	73,9915	0,5262	0,5005	3
49,2898	73,9599	0,524	0,5005	3
49,3544	73,9187	0,5219	0,5005	3
49,419	73,8821	0,5197	0,5005	3
49,4836	73,861	0,5177	0,5005	3
49,5482	73,8416	0,5155	0,5004	3
49,6128	73,8235	0,5132	0,5005	3
49,6774	73,8082	0,5111	0,5005	3
49,742	73,7876	0,509	0,5005	3
49,8066	73,7623	0,507	0,5005	3
49,8712	73,7207	0,5046	0,5005	3
49,9358	73,6922	0,5024	0,5005	3
50,0004	73,6745	0,5004	0,5005	3
50,065	73,6616	0,4983	0,5005	3
50,1296	73,6398	0,4961	0,5004	3
50,1942	73,6075	0,4938	0,5004	3
50,2588	73,5821	0,4917	0,5004	3
50,3234	73,554	0,4896	0,5004	3
50,388	73,5202	0,4875	0,5004	3
50,4526	73,4803	0,4852	0,5004	3
50,5172	73,4431	0,483	0,5004	3
50,5818	73,4171	0,481	0,5004	3
50,6464	73,386	0,4789	0,5004	3
50,711	73,3565	0,4767	0,5004	3
50,7756	73,3447	0,4744	0,5004	3
50,8402	73,3242	0,4724	0,5004	3
50,9048	73,2975	0,4704	0,5005	3
50,9694	73,2602	0,4681	0,5004	3
51,034	73,2331	0,4658	0,5004	3
51,0986	73,2151	0,4638	0,5005	3
51,1632	73,1892	0,4616	0,5005	3
51,2278	73,1649	0,4595	0,5005	3
51,2924	73,143	0,4572	0,5005	3
51,357	73,1206	0,4551	0,5005	3
51,4216	73,0906	0,453	0,5005	3
51,4862	73,0454	0,4509	0,5005	3
51,5508	73,0182	0,4487	0,5004	3
51,6154	72,9958	0,4464	0,5004	3
51,68	72,9732	0,4444	0,5005	3
51,7446	72,9453	0,4423	0,5005	3
51,8092	72,9139	0,4401	0,5004	3
51,8738	72,8766	0,4379	0,5004	3
51,9384	72,8386	0,4358	0,5005	3
52,003	72,8006	0,4338	0,5005	3
52,0676	72,7693	0,4314	0,5005	3
52,1322	72,7432	0,4292	0,5005	3
52,1968	72,7222	0,4271	0,5005	3
52,2614	72,6943	0,425	0,5005	3
52,326	72,6719	0,4229	0,5005	3
52,3906	72,6581	0,4207	0,5005	3
52,4552	72,6285	0,4186	0,5005	3
52,5198	72,5939	0,4164	0,5004	3
52,5844	72,5539	0,4142	0,5004	3
52,649	72,5312	0,4121	0,5004	3
52,7136	72,5122	0,41	0,5004	3
52,7782	72,4863	0,4077	0,5004	3
52,8428	72,4577	0,4056	0,5004	3
52,9074	72,4275	0,4035	0,5004	3
52,972	72,3957	0,4013	0,5004	3
53,0366	72,3673	0,3991	0,5004	3
53,1012	72,3415	0,397	0,5005	3
53,1658	72,3202	0,3949	0,5005	3
53,2304	72,3011	0,3927	0,5005	3
53,295	72,2845	0,3905	0,5004	3
53,3596	72,2593	0,3884	0,5005	3
53,4242	72,231	0,3863	0,5005	3
53,4888	72,1984	0,3841	0,5004	3
53,5534	72,1698	0,3819	0,5004	3
53,618	72,1434	0,3797	0,5004	3
53,6826	72,1208	0,3776	0,5004	3
53,7472	72,0951	0,3755	0,5004	3
53,8118	72,0682	0,3733	0,5004	3
53,8764	72,041	0,3712	0,5004	3
53,941	72,0124	0,369	0,5004	3
54,0056	71,9818	0,3669	0,5004	3
54,0702	71,9393	0,3647	0,5004	3
54,1348	71,895	0,3626	0,5004	3
54,1994	71,8489	0,3605	0,5004	3
54,264	71,811	0,3583	0,5004	3
54,3286	71,776	0,3561	0,5004	3
54,3932	71,7447	0,3539	0,5004	3
54,4578	71,7143	0,3518	0,5004	3
54,5224	71,686	0,3497	0,5004	3
54,587	71,6617	0,3474	0,5004	3
54,6516	71,6379	0,3453	0,5004	3
54,7162	71,6141	0,3432	0,5004	3
54,7808	71,5903	0,3411	0,5004	3
54,8454	71,5614	0,3389	0,5004	3
54,91	71,5305	0,3367	0,5004	3
54,9746	71,4997	0,3346	0,5004	3
55,0392	71,4684	0,3324	0,5004	3
55,1038	71,4367	0,3303	0,5005	3
55,1684	71,4059	0,3281	0,5004	3
55,233	71,3732	0,3259	0,5004	3
55,2976	71,3388	0,3238	0,5004	3
55,3622	71,3036	0,3216	0,5004	3
55,4268	71,2679	0,3195	0,5004	3
55,4914	71,2318	0,3173	0,5004	3
55,556	71,2028	0,3152	0,5004	3
55,6206	71,1741	0,3131	0,5004	3
55,6852	71,1434	0,3109	0,5004	3
55,7498	71,1109	0,3087	0,5004	3
55,8144	71,08	0,3066	0,5004	3
55,879	71,0571	0,3045	0,5004	3
55,9436	71,0343	0,3023	0,5004	3
56,0082	71,0113	0,3001	0,5004	3
56,0728	70,9866	0,2979	0,5004	3
56,1374	70,9526	0,2958	0,5004	3
56,202	70,912	0,2936	0,5004	3
56,2666	70,8793	0,2915	0,5004	3
56,3312	70,8435	0,2894	0,5004	3
56,3958	70,8045	0,2872	0,5004	3
56,4604	70,7723	0,285	0,5004	3
56,525	70,7395	0,2829	0,5004	3
56,5896	70,7052	0,2808	0,5004	3
56,6542	70,6809	0,2786	0,5004	3
56,7188	70,6548	0,2765	0,5004	3
56,7834	70,6196	0,2743	0,5004	3
56,848	70,5825	0,2721	0,5004	3
56,9126	70,5484	0,2699	0,5004	3
56,9772	70,5291	0,2678	0,5004	3
57,0418	70,4984	0,2657	0,5004	3
57,1064	70,4611	0,2635	0,5004	3
57,171	70,4201	0,2614	0,5004	3
57,2356	70,3867	0,2593	0,5004	3
57,3002	70,3594	0,2571	0,5004	3
57,3648	70,3231	0,2549	0,5004	3
57,4294	70,2913	0,2527	0,5004	3
57,494	70,2649	0,2506	0,5004	3
57,5586	70,2387	0,2485	0,5004	3
57,6232	70,2087	0,2463	0,5004	3
57,6878	70,1718	0,2441	0,5004	3
57,7524	70,1373	0,242	0,5004	3
57,817	70,1051	0,2399	0,5004	3
57,8816	70,078	0,2377	0,5004	3
57,9462	70,0476	0,2355	0,5005	3
58,0108	70,0136	0,2334	0,5004	3
58,0754	69,9683	0,2312	0,5004	3
58,14	69,9244	0,2291	0,5004	3
58,2046	69,8816	0,2269	0,5004	3
58,2692	69,8403	0,2248	0,5004	3
58,3338	69,8053	0,2226	0,5004	3
58,3984	69,7761	0,2204	0,5004	3
58,463	69,7525	0,2183	0,5004	3
58,5276	69,7271	0,2162	0,5005	3
58,5922	69,6989	0,214	0,5005	3
58,6568	69,6681	0,2118	0,5004	3
58,7214	69,6362	0,2097	0,5004	3
58,786	69,6028	0,2076	0,5005	3
58,8506	69,5718	0,2054	0,5004	3
58,9152	69,5423	0,2033	0,5004	3
58,9798	69,5151	0,2011	0,5004	3
59,0444	69,484	0,1989	0,5004	3
59,109	69,4496	0,1968	0,5004	3
59,1736	69,4065	0,1946	0,5004	3
59,2382	69,3699	0,1925	0,5004	3
59,3028	69,3381	0,1904	0,5004	3
59,3674	69,3099	0,1882	0,5004	3
59,432	69,2751	0,1861	0,5004	3
59,4966	69,2338	0,1839	0,5004	3
59,5612	69,1938	0,1817	0,5004	3
59,6258	69,1514	0,1796	0,5004	3
59,6904	69,1049	0,1775	0,5004	3
59,755	69,0537	0,1753	0,5004	3
59,8196	69,0038	0,1731	0,5004	3
59,8842	68,9583	0,1709	0,5004	3
59,9488	68,9226	0,1688	0,5004	3
60,0134	68,8903	0,1667	0,5004	3
60,078	68,8593	0,1645	0,5004	3
60,1426	68,8186	0,1623	0,5004	3
60,2072	68,7734	0,1602	0,5004	3
60,2718	68,7325	0,1581	0,5004	3
60,3364	68,692	0,1559	0,5004	3
60,401	68,6519	0,1537	0,5004	3
60,4656	68,6031	0,1516	0,5004	3
60,5302	68,5599	0,1494	0,5004	3
60,5948	68,5231	0,1473	0,5004	3
60,6594	68,4869	0,1451	0,5004	3
60,724	68,4487	0,1429	0,5004	3
60,7886	68,4071	0,1409	0,5004	3
60,8532	68,3624	0,1387	0,5004	3
60,9178	68,3186	0,1365	0,5004	3
60,9824	68,2791	0,1344	0,5004	3
61,047	68,243	0,1323	0,5004	3
61,1116	68,2061	0,1301	0,5004	3
61,1762	68,1597	0,1279	0,5004	3
61,2408	68,1076	0,1257	0,5004	3
61,3054	68,0533	0,1235	0,5004	3
61,37	68,01	0,1214	0,5004	3
61,4346	67,9692	0,1193	0,5004	3
61,4992	67,9306	0,1171	0,5004	3
61,5638	67,8899	0,115	0,5004	3
61,6284	67,8484	0,1128	0,5004	3
61,693	67,8058	0,1106	0,5004	3
61,7576	67,7647	0,1085	0,5004	3
61,8222	67,7223	0,1063	0,5004	3
61,8868	67,6769	0,1042	0,5004	3
61,9514	67,635	0,102	0,5004	3
62,016	67,5907	0,0999	0,5004	3
62,0806	67,5366	0,0978	0,5004	3
62,1452	67,482	0,0956	0,5004	3
62,2098	67,4289	0,0935	0,5004	3
62,2744	67,3851	0,0913	0,5004	3
62,339	67,3381	0,0892	0,5004	3
62,4036	67,2889	0,087	0,5004	3
62,4682	67,2375	0,0848	0,5004	3
62,5328	67,1855	0,0827	0,5004	3
62,5974	67,133	0,0806	0,5004	3
62,662	67,0677	0,0784	0,5004	3
62,7266	67,0046	0,0762	0,5004	3
62,7912	66,9457	0,0741	0,5004	3
62,8558	66,8993	0,0719	0,5004	3
62,9204	66,8563	0,0698	0,5004	3
62,985	66,8165	0,0676	0,5004	3
63,0496	66,7698	0,0655	0,5004	3
63,1142	66,7181	0,0633	0,5004	3
63,1788	66,6563	0,0612	0,5004	3
63,2434	66,5919	0,059	0,5004	3
63,308	66,5247	0,0568	0,5004	3
63,3726	66,4467	0,0547	0,5004	3
63,4372	66,3699	0,0526	0,5004	3
63,5018	66,2942	0,0505	0,5005	3
63,5664	66,2169	0,0483	0,5005	3
63,631	66,1342	0,0461	0,5005	3
63,6956	66,0457	0,044	0,5005	3
63,7602	65,9783	0,0418	0,5005	3
63,8248	65,9126	0,0397	0,5004	3
63,8894	65,8473	0,0375	0,5005	3
63,954	65,7613	0,0353	0,5005	3
64,0186	65,6734	0,0332	0,5005	3
64,0832	65,591	0,031	0,5005	3
64,1478	65,5154	0,0289	0,5004	3
64,2124	65,4409	0,0268	0,5004	3
64,277	65,361	0,0246	0,5004	3
64,3416	65,2776	0,0224	0,5005	3
64,4062	65,1915	0,0203	0,5005	3
64,4708	65,0982	0,0181	0,5005	3
64,5354	65,0064	0,016	0,5004	3
