

 + Main results

   HIT=	57,8 	MPa *not real
   EIT=	24 	GPa *not real
   E*=	2	GPa *not real

 + Hypothesis

   Poisson's ratio(nu)=	0,1 

 + Additional results

   HVIT=	 	 Vickers
   CIT	3,29 	%
   nIT=	
   Fmax=	1,00 	mN
   hmax=	0,8
   S=	=
   F/S²=	==
   hc= 100 	nm
   hr=	85 	nm
   hp=	61 	nm
   m=	1,7323 
   Epsilon=	0,74 
   R2=	0,999
   Ap=	109 	nm²
   Welast=	5,68 pJ
   Wplast=	25,79 pJ
   Wtotal=	31,47 pJ
   Er=	220 	GPa

Measured values
Time (s)	Pd (nm)	Fn (mN)	FnRef (mN)	SegmentID

0	0	0	0,5004	0
0,0647	2,0046	0,0004	0,5003	0
0,1294	3,7221	0,0015	0,5003	1
0,1941	5,0951	0,0034	0,5003	1
0,2588	6,0063	0,0066	0,5003	1
0,3235	6,7873	0,01	0,5003	1
0,3882	7,421	0,0135	0,5003	1
0,4529	7,8914	0,0163	0,5003	1
0,5176	8,2998	0,0187	0,5003	1
0,5823	8,6401	0,0205	0,5003	1
0,647	9,0095	0,0225	0,5004	1
0,7117	9,3861	0,0245	0,5004	1
0,7764	9,7448	0,0268	0,5004	1
0,8411	10,0713	0,029	0,5003	1
0,9058	10,3796	0,0312	0,5003	1
0,9705	10,691	0,0332	0,5003	1
1,0352	11,0653	0,0352	0,5004	1
1,0999	11,4923	0,0374	0,5004	1
1,1646	11,9362	0,0396	0,5003	1
1,2293	12,3491	0,0417	0,5003	1
1,294	12,7247	0,044	0,5003	1
1,3587	13,0808	0,0462	0,5003	1
1,4234	13,431	0,0483	0,5003	1
1,4881	13,774	0,0504	0,5003	1
1,5528	14,0948	0,0526	0,5003	1
1,6175	14,4046	0,0548	0,5003	1
1,6822	14,698	0,057	0,5003	1
1,7469	14,9756	0,0592	0,5004	1
1,8116	15,2446	0,0613	0,5004	1
2,7821	18,666	0,0936	0,5002	1
2,8468	18,8884	0,0958	0,5003	1
2,9115	19,1347	0,0979	0,5003	1
2,9762	19,4909	0,1	0,5003	1
3,0409	19,8375	0,1021	0,5003	1
3,1056	20,1694	0,1042	0,5003	1
3,1703	20,4062	0,1066	0,5003	1
3,235	20,6375	0,1088	0,5003	1
3,2997	20,8639	0,1109	0,5003	1
3,3644	21,1876	0,1129	0,5003	1
3,4291	21,5389	0,115	0,5003	1
3,4938	21,9237	0,1173	0,5003	1
3,5585	22,2377	0,1195	0,5003	1
3,6232	22,5293	0,1216	0,5002	1
3,6879	22,7944	0,1238	0,5002	1
3,7526	23,0349	0,126	0,5003	1
3,8173	23,2672	0,1281	0,5003	1
3,882	23,4927	0,1303	0,5003	1
4,9819	25,9726	0,1671	0,5003	1
5,0466	26,1089	0,1692	0,5003	1
5,1113	26,2569	0,1713	0,5003	1
5,176	26,4581	0,1735	0,5003	1
5,2407	26,6797	0,1756	0,5003	1
5,3054	26,9123	0,1777	0,5003	1
5,3701	27,1341	0,1799	0,5003	1
5,4348	27,3529	0,1821	0,5003	1
5,4995	27,569	0,1842	0,5003	1
5,5642	27,7774	0,1863	0,5003	1
5,6289	28,017	0,1884	0,5003	1
5,6936	28,2955	0,1906	0,5003	1
5,7583	28,5781	0,1928	0,5003	1
5,823	28,851	0,1949	0,5003	1
5,8877	29,1056	0,197	0,5003	1
5,9524	29,3715	0,1992	0,5003	1
6,0171	29,6413	0,2014	0,5003	1
6,0818	29,9147	0,2036	0,5003	1
6,1465	30,1884	0,2057	0,5003	1
6,2112	30,4591	0,2078	0,5003	1
6,2759	30,7148	0,21	0,5003	1
6,3406	30,986	0,2122	0,5003	1
6,4053	31,2648	0,2143	0,5003	1
6,47	31,526	0,2164	0,5003	1
6,5347	31,7603	0,2187	0,5003	1
6,5994	31,9715	0,2209	0,5003	1
6,6641	32,1513	0,2231	0,5003	1
6,7288	32,3164	0,2252	0,5003	1
6,7935	32,4637	0,2274	0,5003	1
6,8582	32,6046	0,2295	0,5003	1
6,9229	32,7467	0,2317	0,5003	1
8,0228	34,9483	0,2684	0,5002	1
8,0875	35,0755	0,2705	0,5002	1
8,1522	35,2026	0,2727	0,5002	1
8,2169	35,3328	0,2749	0,5002	1
8,2816	35,472	0,2769	0,5002	1
8,3463	35,6355	0,279	0,5002	1
8,411	35,8109	0,2812	0,5002	1
8,4757	35,9972	0,2834	0,5003	1
8,5404	36,1898	0,2856	0,5003	1
8,6051	36,3888	0,2877	0,5003	1
8,6698	36,6188	0,2898	0,5003	1
8,7345	36,8713	0,2919	0,5003	1
8,7992	37,1435	0,294	0,5002	1
8,8639	37,4091	0,2962	0,5002	1
8,9286	37,672	0,2984	0,5003	1
8,9933	37,9315	0,3005	0,5003	1
9,058	38,2	0,3027	0,5003	1
9,1227	38,4617	0,3048	0,5003	1
9,1874	38,7089	0,307	0,5003	1
9,2521	38,9315	0,3092	0,5003	1
9,3168	39,1517	0,3114	0,5003	1
9,3815	39,3819	0,3135	0,5003	1
9,4462	39,5804	0,3157	0,5003	1
9,5109	39,7587	0,3178	0,5003	1
9,5756	39,9009	0,3201	0,5003	1
10,9343	42,8223	0,3653	0,5002	1
10,999	42,9927	0,3674	0,5002	1
17,7925	57,0746	0,5939	0,5003	1
17,8572	57,1812	0,5961	0,5003	1
17,9219	57,2862	0,5982	0,5003	1
17,9866	57,3879	0,6004	0,5003	1
18,0513	57,481	0,6026	0,5003	1
18,116	57,5707	0,6048	0,5003	1
18,1807	57,6568	0,6069	0,5003	1
18,2454	57,7687	0,609	0,5003	1
18,3101	57,8953	0,6111	0,5003	1
18,3748	58,0428	0,6133	0,5003	1
18,4395	58,1835	0,6155	0,5003	1
18,5042	58,3188	0,6176	0,5003	1
18,5689	58,44	0,6198	0,5003	1
18,6336	58,5529	0,6219	0,5003	1
18,6983	58,6581	0,6241	0,5003	1
18,763	58,7635	0,6263	0,5003	1
18,8277	58,8741	0,6284	0,5003	1
18,8924	58,9917	0,6306	0,5003	1
18,9571	59,0973	0,6327	0,5003	1
19,0218	59,1985	0,6348	0,5003	1
19,0865	59,2942	0,6371	0,5003	1
19,1512	59,3838	0,6392	0,5003	1
19,2159	59,4781	0,6414	0,5004	1
19,2806	59,5915	0,6435	0,5004	1
19,3453	59,7215	0,6457	0,5004	1
19,41	59,8597	0,6478	0,5004	1
19,4747	60,0045	0,6499	0,5004	1
19,5394	60,1371	0,6521	0,5004	1
19,6041	60,261	0,6543	0,5004	1
19,6688	60,3736	0,6564	0,5004	1
19,7335	60,4872	0,6586	0,5004	1
19,7982	60,6016	0,6608	0,5003	1
19,8629	60,7118	0,6629	0,5003	1
19,9276	60,8202	0,6651	0,5003	1
19,9923	60,9263	0,6672	0,5003	1
20,057	61,0277	0,6694	0,5004	1
20,1217	61,1365	0,6716	0,5004	1
20,1864	61,2613	0,6737	0,5004	1
20,2511	61,3983	0,6758	0,5004	1
20,3158	61,5394	0,678	0,5003	1
20,3805	61,6831	0,6801	0,5003	1
20,4452	61,8472	0,6823	0,5003	1
20,5099	62,0225	0,6844	0,5004	1
20,5746	62,2105	0,6866	0,5004	1
20,6393	62,3697	0,6888	0,5004	1
20,704	62,5091	0,691	0,5003	1
20,7687	62,631	0,6931	0,5004	1
20,8334	62,7447	0,6952	0,5004	1
20,8981	62,8508	0,6974	0,5004	1
20,9628	62,9483	0,6996	0,5004	1
21,0275	63,047	0,7017	0,5004	1
21,0922	63,1477	0,7039	0,5004	1
21,1569	63,2685	0,706	0,5004	1
21,2216	63,3992	0,7081	0,5004	1
21,2863	63,544	0,7103	0,5004	1
21,351	63,6691	0,7125	0,5004	1
26,4623	72,6644	0,8828	0,5003	1
26,527	72,7827	0,885	0,5003	1
26,5917	72,8982	0,8872	0,5003	1
26,6564	73,0236	0,8893	0,5003	1
26,7211	73,1483	0,8914	0,5003	1
26,7858	73,2688	0,8936	0,5003	1
26,8505	73,3837	0,8958	0,5004	1
26,9152	73,4966	0,898	0,5004	1
26,9799	73,6085	0,9001	0,5004	1
27,0446	73,7125	0,9022	0,5004	1
27,1093	73,8129	0,9044	0,5004	1
27,174	73,9126	0,9066	0,5004	1
27,2387	74,0174	0,9087	0,5004	1
27,3034	74,126	0,9108	0,5004	1
27,3681	74,2409	0,913	0,5003	1
27,4328	74,3446	0,9152	0,5003	1
27,4975	74,4373	0,9174	0,5003	1
27,5622	74,5139	0,9196	0,5003	1
27,6269	74,5891	0,9217	0,5003	1
27,6916	74,6635	0,9239	0,5003	1
27,7563	74,741	0,926	0,5003	1
27,821	74,8254	0,9282	0,5003	1
27,8857	74,9231	0,9303	0,5003	1
27,9504	75,0259	0,9324	0,5003	1
28,0151	75,1305	0,9346	0,5003	1
28,0798	75,2361	0,9368	0,5003	1
28,1445	75,3375	0,9389	0,5003	1
28,2092	75,4383	0,9411	0,5003	1
28,2739	75,5459	0,9432	0,5003	1
28,3386	75,6554	0,9453	0,5003	1
28,4033	75,7662	0,9476	0,5003	1
28,468	75,8782	0,9497	0,5003	1
28,5327	75,9857	0,9518	0,5003	1
28,5974	76,0887	0,954	0,5003	1
28,6621	76,1895	0,9562	0,5003	1
28,7268	76,2876	0,9584	0,5003	1
28,7915	76,3819	0,9605	0,5003	1
28,8562	76,4659	0,9626	0,5003	1
28,9209	76,5461	0,9648	0,5003	1
28,9856	76,6217	0,967	0,5003	1
29,0503	76,7114	0,9691	0,5002	1
29,115	76,8081	0,9712	0,5002	1
29,1797	76,9152	0,9734	0,5002	1
29,2444	77,0089	0,9755	0,5003	1
29,3091	77,0964	0,9777	0,5003	1
29,3738	77,1842	0,9799	0,5003	1
29,4385	77,2867	0,9821	0,5003	1
29,5032	77,3992	0,9841	0,5003	1
29,5679	77,5107	0,9864	0,5003	1
29,6326	77,6156	0,9885	0,5003	2
29,6973	77,714	0,9907	0,5003	2
29,762	77,7904	0,9928	0,5003	2
29,8267	77,8689	0,995	0,5003	2
29,8914	77,9518	0,9972	0,5003	2
29,9561	78,0536	0,9989	0,5003	2
30,0208	78,1507	1,0002	0,5003	2
30,0855	78,2316	1,0009	0,5003	2
30,1502	78,2995	1,0011	0,5003	2
30,2149	78,3649	1,0011	0,5003	2
30,2796	78,435	1,001	0,5003	2
30,3443	78,5177	1,0011	0,5004	2
30,409	78,608	1,0011	0,5004	2
30,4737	78,7093	1,001	0,5003	2
30,5384	78,795	1,0011	0,5003	2
30,6031	78,8695	1,0011	0,5003	2
30,6678	78,9313	1,0011	0,5003	2
30,7325	78,9912	1,0011	0,5003	2
30,7972	79,0494	1,0011	0,5003	2
30,8619	79,0969	1,0011	0,5003	2
30,9266	79,1434	1,0011	0,5003	2
30,9913	79,189	1,001	0,5003	2
31,056	79,244	1,0011	0,5003	2
31,1207	79,2962	1,0011	0,5003	2
31,1854	79,3394	1,001	0,5003	2
31,2501	79,3731	1,0011	0,5003	2
31,3148	79,4022	1,0011	0,5003	2
31,3795	79,4254	1,0011	0,5003	2
31,4442	79,4499	1,0011	0,5003	2
31,5089	79,4759	1,0011	0,5003	2
31,5736	79,507	1,0011	0,5003	2
31,6383	79,5364	1,0011	0,5003	2
31,703	79,5643	1,0011	0,5003	2
31,7677	79,5866	1,0011	0,5003	2
31,8324	79,6021	1,0011	0,5003	2
31,8971	79,6109	1,0011	0,5003	2
31,9618	79,6291	1,0011	0,5003	2
32,0265	79,6477	1,0011	0,5003	2
32,0912	79,6664	1,0011	0,5003	2
32,1559	79,6909	1,0011	0,5003	2
32,2206	79,7109	1,0011	0,5003	2
32,2853	79,7193	1,0011	0,5003	2
32,35	79,7333	1,0011	0,5003	2
32,4147	79,7517	1,0011	0,5003	2
32,4794	79,7793	1,0011	0,5003	2
32,5441	79,8037	1,0011	0,5003	2
32,6088	79,8263	1,0011	0,5003	2
32,6735	79,8466	1,0011	0,5002	2
32,7382	79,8654	1,0011	0,5002	2
32,8029	79,8831	1,001	0,5002	2
32,8676	79,9008	1,0011	0,5003	2
32,9323	79,9161	1,0011	0,5003	2
32,997	79,929	1,001	0,5003	2
33,0617	79,9405	1,0011	0,5003	2
33,1264	79,9521	1,0011	0,5003	2
33,1911	79,964	1,0011	0,5002	2
33,2558	79,9713	1,0011	0,5002	2
33,3205	79,9774	1,0011	0,5002	2
33,3852	79,9828	1,0011	0,5002	2
33,4499	79,9857	1,0011	0,5002	2
33,5146	79,9901	1,0011	0,5002	2
33,5793	80,0028	1,0011	0,5003	2
33,644	80,0217	1,0011	0,5002	2
33,7087	80,0445	1,0011	0,5002	2
33,7734	80,0726	1,0011	0,5002	2
33,8381	80,0941	1,0011	0,5002	2
33,9028	80,1113	1,0011	0,5002	2
33,9675	80,1333	1,0011	0,5003	2
34,0322	80,1511	1,0011	0,5003	2
34,0969	80,1647	1,001	0,5003	2
34,1616	80,1745	1,001	0,5003	2
34,2263	80,1854	1,001	0,5003	2
34,291	80,1982	1,001	0,5003	2
34,3557	80,2031	1,0011	0,5003	2
38,1083	79,6459	0,8979	0,5003	3
38,173	79,6298	0,8956	0,5003	3
38,2377	79,6109	0,8934	0,5003	3
38,3024	79,5902	0,8914	0,5003	3
38,3671	79,5798	0,8892	0,5003	3
38,4318	79,5688	0,887	0,5003	3
38,4965	79,5572	0,8848	0,5003	3
38,5612	79,5384	0,8827	0,5003	3
38,6259	79,5166	0,8806	0,5003	3
38,6906	79,4909	0,8784	0,5002	3
38,7553	79,4703	0,8762	0,5003	3
41,5374	78,5868	0,7835	0,5003	3
41,6021	78,5596	0,7814	0,5003	3
41,6668	78,535	0,7792	0,5003	3
41,7315	78,5093	0,777	0,5003	3
44,3842	77,4623	0,6886	0,5003	3
44,4489	77,4434	0,6864	0,5003	3
44,5136	77,4187	0,6843	0,5003	3
44,5783	77,3836	0,6821	0,5003	3
44,643	77,3553	0,6799	0,5003	3
44,7077	77,332	0,6778	0,5003	3
44,7724	77,3211	0,6756	0,5003	3
44,8371	77,3105	0,6735	0,5003	3
44,9018	77,2998	0,6714	0,5003	3
45,6135	77,0342	0,6476	0,5003	3
45,6782	77,0153	0,6455	0,5003	3
45,7429	76,9889	0,6433	0,5003	3
45,8076	76,9588	0,6412	0,5003	3
45,8723	76,9289	0,639	0,5003	3
45,937	76,898	0,6368	0,5003	3
46,0017	76,8666	0,6346	0,5003	3
46,0664	76,848	0,6325	0,5003	3
46,1311	76,8299	0,6303	0,5003	3
46,7781	76,6061	0,6088	0,5003	3
46,8428	76,5799	0,6066	0,5003	3
46,9075	76,5609	0,6045	0,5003	3
46,9722	76,553	0,6024	0,5003	3
47,0369	76,5331	0,6002	0,5003	3
47,878	76,2181	0,5721	0,5003	3
47,9427	76,1971	0,57	0,5003	3
48,0074	76,1812	0,5678	0,5003	3
48,0721	76,169	0,5656	0,5003	3
48,1368	76,1448	0,5635	0,5003	3
48,2015	76,1118	0,5614	0,5003	3
49,0426	75,7977	0,5333	0,5003	3
49,1073	75,7833	0,5311	0,5003	3
49,172	75,7529	0,529	0,5003	3
49,2367	75,7213	0,5269	0,5003	3
49,3014	75,6888	0,5247	0,5003	3
49,3661	75,6552	0,5225	0,5003	3
49,4308	75,6187	0,5204	0,5003	3
49,4955	75,579	0,5182	0,5003	3
49,5602	75,5444	0,516	0,5003	3
49,6249	75,5114	0,5139	0,5003	3
49,6896	75,4806	0,5117	0,5003	3
49,7543	75,4551	0,5096	0,5003	3
49,819	75,4312	0,5074	0,5003	3
49,8837	75,4091	0,5053	0,5003	3
49,9484	75,3832	0,5031	0,5003	3
53,7657	73,7446	0,3759	0,5002	3
53,8304	73,6781	0,3737	0,5002	3
53,8951	73,6018	0,3715	0,5002	3
53,9598	73,5519	0,3694	0,5002	3
57,2595	71,8481	0,2595	0,5003	3
57,3242	71,8176	0,2573	0,5003	3
57,3889	71,7917	0,2551	0,5003	3
57,4536	71,7619	0,253	0,5003	3
57,5183	71,7347	0,2509	0,5003	3
57,583	71,7157	0,2487	0,5003	3
57,6477	71,6918	0,2465	0,5003	3
57,7124	71,6632	0,2444	0,5002	3
57,7771	71,622	0,2422	0,5002	3
57,8418	71,5796	0,2401	0,5002	3
57,9065	71,5377	0,2379	0,5002	3
57,9712	71,5063	0,2357	0,5002	3
58,0359	71,4758	0,2336	0,5003	3
58,1006	71,4458	0,2314	0,5003	3
58,1653	71,4078	0,2292	0,5002	3
58,23	71,367	0,2271	0,5002	3
58,2947	71,323	0,225	0,5002	3
58,3594	71,2824	0,2228	0,5002	3
58,4241	71,2436	0,2207	0,5002	3
58,4888	71,2076	0,2185	0,5003	3
58,5535	71,1665	0,2163	0,5003	3
58,6182	71,1275	0,2142	0,5003	3
58,6829	71,0963	0,212	0,5003	3
63,0825	66,8564	0,0654	0,5003	3

