

 + Main results

   HIT=	5487,8 	MPa
   EIT=	246,57 	GPa
   E*=	270,96 	GPa

 + Hypothesis

   Poisson's ratio(nu)=	0,30 

 + Additional results

   HVIT=	508,23 	 Vickers
   CIT 0,001/30/5=	3,29 	%
   nIT=	18,04 %
   Fmax=	1,00 	mN
   hmax=	80,60 	nm
   S=	0,1092 	mN/nm
   F/S²=	83,9277 	nm²/mN
   hc=	73,86 	nm
   hr=	71,44 	nm
   hp=	64,73 	nm
   m=	1,7323 
   Epsilon=	0,74 
   R2=	0,999
   Ap=	182407,09 	nm²
   Welast=	5,68 pJ
   Wplast=	25,79 pJ
   Wtotal=	31,47 pJ
   Er=	219,17 	GPa

Measured values
Time (s)	Pd (nm)	Fn (mN)	FnRef (mN)	SegmentID

0	0	0	0,5004	0
0,0647	2,0046	0,0004	0,5003	0
0,1294	3,7221	0,0015	0,5003	1
0,1941	5,0951	0,0034	0,5003	1
0,2588	6,0063	0,0066	0,5003	1
0,3235	6,7873	0,01	0,5003	1
0,3882	7,421	0,0135	0,5003	1
0,4529	7,8914	0,0163	0,5003	1
0,5176	8,2998	0,0187	0,5003	1
0,5823	8,6401	0,0205	0,5003	1
0,647	9,0095	0,0225	0,5004	1
0,7117	9,3861	0,0245	0,5004	1
0,7764	9,7448	0,0268	0,5004	1
0,8411	10,0713	0,029	0,5003	1
0,9058	10,3796	0,0312	0,5003	1
0,9705	10,691	0,0332	0,5003	1
1,0352	11,0653	0,0352	0,5004	1
1,0999	11,4923	0,0374	0,5004	1
1,1646	11,9362	0,0396	0,5003	1
1,2293	12,3491	0,0417	0,5003	1
1,294	12,7247	0,044	0,5003	1
1,3587	13,0808	0,0462	0,5003	1
1,4234	13,431	0,0483	0,5003	1
1,4881	13,774	0,0504	0,5003	1
1,5528	14,0948	0,0526	0,5003	1
1,6175	14,4046	0,0548	0,5003	1
1,6822	14,698	0,057	0,5003	1
1,7469	14,9756	0,0592	0,5004	1
1,8116	15,2446	0,0613	0,5004	1
1,8763	15,5024	0,0635	0,5003	1
1,941	15,774	0,0656	0,5003	1
2,0057	16,0506	0,0677	0,5003	1
2,0704	16,2982	0,0699	0,5003	1
2,1351	16,5341	0,0721	0,5003	1
2,1998	16,7602	0,0743	0,5003	1
2,2645	17,0035	0,0764	0,5003	1
2,3292	17,2243	0,0786	0,5003	1
2,3939	17,4175	0,0808	0,5003	1
2,4586	17,5955	0,0829	0,5003	1
2,5233	17,7825	0,0851	0,5003	1
2,588	17,9882	0,0872	0,5003	1
2,6527	18,2148	0,0894	0,5003	1
2,7174	18,4436	0,0915	0,5003	1
2,7821	18,666	0,0936	0,5002	1
2,8468	18,8884	0,0958	0,5003	1
2,9115	19,1347	0,0979	0,5003	1
2,9762	19,4909	0,1	0,5003	1
3,0409	19,8375	0,1021	0,5003	1
3,1056	20,1694	0,1042	0,5003	1
3,1703	20,4062	0,1066	0,5003	1
3,235	20,6375	0,1088	0,5003	1
3,2997	20,8639	0,1109	0,5003	1
3,3644	21,1876	0,1129	0,5003	1
3,4291	21,5389	0,115	0,5003	1
3,4938	21,9237	0,1173	0,5003	1
3,5585	22,2377	0,1195	0,5003	1
3,6232	22,5293	0,1216	0,5002	1
3,6879	22,7944	0,1238	0,5002	1
3,7526	23,0349	0,126	0,5003	1
3,8173	23,2672	0,1281	0,5003	1
3,882	23,4927	0,1303	0,5003	1
3,9467	23,701	0,1325	0,5003	1
4,0114	23,8934	0,1347	0,5003	1
4,0761	24,0421	0,1369	0,5003	1
4,1408	24,1776	0,139	0,5003	1
4,2055	24,3063	0,1412	0,5003	1
4,2702	24,4433	0,1433	0,5003	1
4,3349	24,5802	0,1454	0,5003	1
4,3996	24,717	0,1477	0,5003	1
4,4643	24,8528	0,1498	0,5003	1
4,529	24,9943	0,152	0,5003	1
4,5937	25,143	0,1541	0,5003	1
4,6584	25,2779	0,1563	0,5003	1
4,7231	25,4124	0,1585	0,5003	1
4,7878	25,549	0,1606	0,5003	1
4,8525	25,694	0,1627	0,5003	1
4,9172	25,8378	0,1649	0,5003	1
4,9819	25,9726	0,1671	0,5003	1
5,0466	26,1089	0,1692	0,5003	1
5,1113	26,2569	0,1713	0,5003	1
5,176	26,4581	0,1735	0,5003	1
5,2407	26,6797	0,1756	0,5003	1
5,3054	26,9123	0,1777	0,5003	1
5,3701	27,1341	0,1799	0,5003	1
5,4348	27,3529	0,1821	0,5003	1
5,4995	27,569	0,1842	0,5003	1
5,5642	27,7774	0,1863	0,5003	1
5,6289	28,017	0,1884	0,5003	1
5,6936	28,2955	0,1906	0,5003	1
5,7583	28,5781	0,1928	0,5003	1
5,823	28,851	0,1949	0,5003	1
5,8877	29,1056	0,197	0,5003	1
5,9524	29,3715	0,1992	0,5003	1
6,0171	29,6413	0,2014	0,5003	1
6,0818	29,9147	0,2036	0,5003	1
6,1465	30,1884	0,2057	0,5003	1
6,2112	30,4591	0,2078	0,5003	1
6,2759	30,7148	0,21	0,5003	1
6,3406	30,986	0,2122	0,5003	1
6,4053	31,2648	0,2143	0,5003	1
6,47	31,526	0,2164	0,5003	1
6,5347	31,7603	0,2187	0,5003	1
6,5994	31,9715	0,2209	0,5003	1
6,6641	32,1513	0,2231	0,5003	1
6,7288	32,3164	0,2252	0,5003	1
6,7935	32,4637	0,2274	0,5003	1
6,8582	32,6046	0,2295	0,5003	1
6,9229	32,7467	0,2317	0,5003	1
6,9876	32,8922	0,2338	0,5003	1
7,0523	33,0525	0,236	0,5003	1
7,117	33,212	0,2381	0,5003	1
7,1817	33,3595	0,2404	0,5003	1
7,2464	33,4738	0,2425	0,5003	1
7,3111	33,5808	0,2446	0,5003	1
7,3758	33,7152	0,2468	0,5003	1
7,4405	33,8654	0,2489	0,5003	1
7,5052	34,0227	0,2511	0,5003	1
7,5699	34,1513	0,2532	0,5003	1
7,6346	34,2758	0,2554	0,5003	1
7,6993	34,3967	0,2576	0,5002	1
7,764	34,4919	0,2598	0,5002	1
7,8287	34,5932	0,2619	0,5002	1
7,8934	34,7025	0,2641	0,5002	1
7,9581	34,824	0,2662	0,5002	1
8,0228	34,9483	0,2684	0,5002	1
8,0875	35,0755	0,2705	0,5002	1
8,1522	35,2026	0,2727	0,5002	1
8,2169	35,3328	0,2749	0,5002	1
8,2816	35,472	0,2769	0,5002	1
8,3463	35,6355	0,279	0,5002	1
8,411	35,8109	0,2812	0,5002	1
8,4757	35,9972	0,2834	0,5003	1
8,5404	36,1898	0,2856	0,5003	1
8,6051	36,3888	0,2877	0,5003	1
8,6698	36,6188	0,2898	0,5003	1
8,7345	36,8713	0,2919	0,5003	1
8,7992	37,1435	0,294	0,5002	1
8,8639	37,4091	0,2962	0,5002	1
8,9286	37,672	0,2984	0,5003	1
8,9933	37,9315	0,3005	0,5003	1
9,058	38,2	0,3027	0,5003	1
9,1227	38,4617	0,3048	0,5003	1
9,1874	38,7089	0,307	0,5003	1
9,2521	38,9315	0,3092	0,5003	1
9,3168	39,1517	0,3114	0,5003	1
9,3815	39,3819	0,3135	0,5003	1
9,4462	39,5804	0,3157	0,5003	1
9,5109	39,7587	0,3178	0,5003	1
9,5756	39,9009	0,3201	0,5003	1
9,6403	40,0434	0,3222	0,5003	1
9,705	40,1852	0,3244	0,5003	1
9,7697	40,3177	0,3266	0,5003	1
9,8344	40,4481	0,3287	0,5003	1
9,8991	40,5764	0,331	0,5003	1
9,9638	40,7353	0,333	0,5002	1
10,0285	40,9029	0,3351	0,5002	1
10,0932	41,0811	0,3373	0,5002	1
10,1579	41,2247	0,3395	0,5002	1
10,2226	41,3611	0,3417	0,5002	1
10,2873	41,4914	0,3439	0,5002	1
10,352	41,5998	0,346	0,5003	1
10,4167	41,7056	0,3481	0,5003	1
10,4814	41,8196	0,3502	0,5003	1
10,5461	41,9536	0,3524	0,5003	1
10,6108	42,094	0,3546	0,5003	1
10,6755	42,226	0,3567	0,5002	1
10,7402	42,3637	0,3589	0,5002	1
10,8049	42,5059	0,3611	0,5003	1
10,8696	42,6597	0,3632	0,5003	1
10,9343	42,8223	0,3653	0,5002	1
10,999	42,9927	0,3674	0,5002	1
11,0637	43,1513	0,3696	0,5003	1
11,1284	43,2993	0,3718	0,5003	1
11,1931	43,434	0,3739	0,5003	1
11,2578	43,5697	0,3761	0,5003	1
11,3225	43,7098	0,3783	0,5002	1
11,3872	43,8577	0,3804	0,5002	1
11,4519	43,9954	0,3826	0,5002	1
11,5166	44,1333	0,3848	0,5002	1
11,5813	44,2793	0,3869	0,5002	1
11,646	44,4241	0,389	0,5002	1
11,7107	44,565	0,3912	0,5002	1
11,7754	44,6884	0,3934	0,5002	1
11,8401	44,811	0,3955	0,5003	1
11,9048	44,9339	0,3977	0,5003	1
11,9695	45,069	0,3998	0,5003	1
12,0342	45,1953	0,402	0,5003	1
12,0989	45,3137	0,4042	0,5003	1
12,1636	45,4158	0,4064	0,5003	1
12,2283	45,5258	0,4085	0,5003	1
12,293	45,6465	0,4107	0,5003	1
12,3577	45,7837	0,4128	0,5003	1
12,4224	45,9187	0,4149	0,5002	1
12,4871	46,0454	0,4171	0,5003	1
12,5518	46,1763	0,4193	0,5002	1
12,6165	46,3106	0,4214	0,5002	1
12,6812	46,4523	0,4236	0,5002	1
12,7459	46,5722	0,4257	0,5003	1
12,8106	46,6822	0,4279	0,5003	1
12,8753	46,7874	0,43	0,5002	1
12,94	46,8962	0,4322	0,5002	1
13,0047	47,0065	0,4344	0,5002	1
13,0694	47,1105	0,4365	0,5003	1
13,1341	47,2177	0,4387	0,5003	1
13,1988	47,3279	0,4408	0,5003	1
13,2635	47,44	0,443	0,5003	1
13,3282	47,5502	0,4451	0,5003	1
13,3929	47,658	0,4473	0,5003	1
13,4576	47,768	0,4494	0,5003	1
13,5223	47,8849	0,4516	0,5003	1
13,587	48,0142	0,4538	0,5003	1
13,6517	48,1511	0,4559	0,5003	1
13,7164	48,3028	0,4581	0,5003	1
13,7811	48,4923	0,4602	0,5003	1
13,8458	48,703	0,4623	0,5004	1
13,9105	48,9205	0,4645	0,5004	1
13,9752	49,128	0,4666	0,5003	1
14,0399	49,311	0,4688	0,5003	1
14,1046	49,4764	0,471	0,5003	1
14,1693	49,6095	0,4731	0,5003	1
14,234	49,7375	0,4753	0,5003	1
14,2987	49,8608	0,4774	0,5003	1
14,3634	49,9774	0,4796	0,5003	1
14,4281	50,0947	0,4818	0,5002	1
14,4928	50,213	0,484	0,5002	1
14,5575	50,3255	0,4861	0,5003	1
14,6222	50,4392	0,4883	0,5003	1
14,6869	50,5563	0,4905	0,5003	1
14,7516	50,6933	0,4926	0,5003	1
14,8163	50,837	0,4947	0,5003	1
14,881	50,9859	0,4969	0,5003	1
14,9457	51,1213	0,499	0,5003	1
15,0104	51,2477	0,5012	0,5003	1
15,0751	51,3561	0,5033	0,5003	1
15,1398	51,4567	0,5055	0,5003	1
15,2045	51,5523	0,5077	0,5003	1
15,2692	51,649	0,5098	0,5003	1
15,3339	51,7602	0,512	0,5003	1
15,3986	51,8845	0,5142	0,5003	1
15,4633	52,0102	0,5163	0,5003	1
15,528	52,1251	0,5185	0,5003	1
15,5927	52,2256	0,5207	0,5003	1
15,6574	52,3205	0,5228	0,5003	1
15,7221	52,4157	0,5249	0,5003	1
15,7868	52,5127	0,527	0,5003	1
15,8515	52,6195	0,5292	0,5003	1
15,9162	52,7308	0,5314	0,5003	1
15,9809	52,8485	0,5335	0,5003	1
16,0456	52,9673	0,5356	0,5003	1
16,1103	53,0874	0,5379	0,5003	1
16,175	53,2121	0,54	0,5003	1
16,2397	53,3459	0,5422	0,5003	1
16,3044	53,4891	0,5442	0,5003	1
16,3691	53,6838	0,5464	0,5003	1
16,4338	53,9116	0,5486	0,5003	1
16,4985	54,1696	0,5506	0,5003	1
16,5632	54,4	0,5529	0,5003	1
16,6279	54,6047	0,5551	0,5003	1
16,6926	54,7764	0,5572	0,5003	1
16,7573	54,9476	0,5594	0,5003	1
16,822	55,1232	0,5615	0,5003	1
16,8867	55,3076	0,5636	0,5003	1
16,9514	55,4914	0,5658	0,5003	1
17,0161	55,6693	0,568	0,5003	1
17,0808	55,8302	0,5702	0,5003	1
17,1455	55,9709	0,5723	0,5003	1
17,2102	56,1002	0,5745	0,5003	1
17,2749	56,2145	0,5767	0,5003	1
17,3396	56,3268	0,5788	0,5003	1
17,4043	56,4368	0,581	0,5003	1
17,469	56,5353	0,5832	0,5003	1
17,5337	56,6366	0,5854	0,5003	1
17,5984	56,7406	0,5875	0,5003	1
17,6631	56,8568	0,5896	0,5003	1
17,7278	56,9687	0,5918	0,5003	1
17,7925	57,0746	0,5939	0,5003	1
17,8572	57,1812	0,5961	0,5003	1
17,9219	57,2862	0,5982	0,5003	1
17,9866	57,3879	0,6004	0,5003	1
18,0513	57,481	0,6026	0,5003	1
18,116	57,5707	0,6048	0,5003	1
18,1807	57,6568	0,6069	0,5003	1
18,2454	57,7687	0,609	0,5003	1
18,3101	57,8953	0,6111	0,5003	1
18,3748	58,0428	0,6133	0,5003	1
18,4395	58,1835	0,6155	0,5003	1
18,5042	58,3188	0,6176	0,5003	1
18,5689	58,44	0,6198	0,5003	1
18,6336	58,5529	0,6219	0,5003	1
18,6983	58,6581	0,6241	0,5003	1
18,763	58,7635	0,6263	0,5003	1
18,8277	58,8741	0,6284	0,5003	1
18,8924	58,9917	0,6306	0,5003	1
18,9571	59,0973	0,6327	0,5003	1
19,0218	59,1985	0,6348	0,5003	1
19,0865	59,2942	0,6371	0,5003	1
19,1512	59,3838	0,6392	0,5003	1
19,2159	59,4781	0,6414	0,5004	1
19,2806	59,5915	0,6435	0,5004	1
19,3453	59,7215	0,6457	0,5004	1
19,41	59,8597	0,6478	0,5004	1
19,4747	60,0045	0,6499	0,5004	1
19,5394	60,1371	0,6521	0,5004	1
19,6041	60,261	0,6543	0,5004	1
19,6688	60,3736	0,6564	0,5004	1
19,7335	60,4872	0,6586	0,5004	1
19,7982	60,6016	0,6608	0,5003	1
19,8629	60,7118	0,6629	0,5003	1
19,9276	60,8202	0,6651	0,5003	1
19,9923	60,9263	0,6672	0,5003	1
20,057	61,0277	0,6694	0,5004	1
20,1217	61,1365	0,6716	0,5004	1
20,1864	61,2613	0,6737	0,5004	1
20,2511	61,3983	0,6758	0,5004	1
20,3158	61,5394	0,678	0,5003	1
20,3805	61,6831	0,6801	0,5003	1
20,4452	61,8472	0,6823	0,5003	1
20,5099	62,0225	0,6844	0,5004	1
20,5746	62,2105	0,6866	0,5004	1
20,6393	62,3697	0,6888	0,5004	1
20,704	62,5091	0,691	0,5003	1
20,7687	62,631	0,6931	0,5004	1
20,8334	62,7447	0,6952	0,5004	1
20,8981	62,8508	0,6974	0,5004	1
20,9628	62,9483	0,6996	0,5004	1
21,0275	63,047	0,7017	0,5004	1
21,0922	63,1477	0,7039	0,5004	1
21,1569	63,2685	0,706	0,5004	1
21,2216	63,3992	0,7081	0,5004	1
21,2863	63,544	0,7103	0,5004	1
21,351	63,6691	0,7125	0,5004	1
21,4157	63,7849	0,7147	0,5004	1
21,4804	63,8877	0,7168	0,5004	1
21,5451	63,9912	0,719	0,5004	1
21,6098	64,0939	0,7212	0,5004	1
21,6745	64,191	0,7233	0,5004	1
21,7392	64,2851	0,7254	0,5004	1
21,8039	64,378	0,7276	0,5004	1
21,8686	64,4831	0,7298	0,5004	1
21,9333	64,5874	0,7319	0,5004	1
21,998	64,6909	0,7341	0,5004	1
22,0627	64,8002	0,7363	0,5004	1
22,1274	64,9154	0,7384	0,5003	1
22,1921	65,0385	0,7405	0,5003	1
22,2568	65,1438	0,7427	0,5004	1
22,3215	65,2473	0,7449	0,5004	1
22,3862	65,3523	0,7471	0,5004	1
22,4509	65,46	0,7492	0,5004	1
22,5156	65,5707	0,7513	0,5004	1
22,5803	65,6887	0,7535	0,5004	1
22,645	65,822	0,7556	0,5004	1
22,7097	65,9622	0,7577	0,5004	1
22,7744	66,1024	0,7599	0,5004	1
22,8391	66,2247	0,7621	0,5004	1
22,9038	66,3359	0,7643	0,5004	1
22,9685	66,4557	0,7663	0,5004	1
23,0332	66,5715	0,7685	0,5003	1
23,0979	66,6836	0,7707	0,5003	1
23,1626	66,7992	0,7729	0,5003	1
23,2273	66,9131	0,775	0,5003	1
23,292	67,0242	0,7771	0,5003	1
23,3567	67,1282	0,7793	0,5003	1
23,4214	67,2352	0,7815	0,5004	1
23,4861	67,3502	0,7837	0,5004	1
23,5508	67,4691	0,7858	0,5004	1
23,6155	67,5895	0,788	0,5004	1
23,6802	67,7115	0,7901	0,5004	1
23,7449	67,8212	0,7923	0,5004	1
23,8096	67,9236	0,7944	0,5004	1
23,8743	68,0141	0,7966	0,5004	1
23,939	68,1151	0,7988	0,5003	1
24,0037	68,2244	0,8009	0,5003	1
24,0684	68,3568	0,8031	0,5003	1
24,1331	68,4844	0,8052	0,5003	1
24,1978	68,6072	0,8074	0,5003	1
24,2625	68,7145	0,8095	0,5003	1
24,3272	68,8263	0,8117	0,5003	1
24,3919	68,9453	0,8139	0,5003	1
24,4566	69,0626	0,816	0,5003	1
24,5213	69,1752	0,8181	0,5003	1
24,586	69,2788	0,8203	0,5003	1
24,6507	69,3757	0,8225	0,5003	1
24,7154	69,4731	0,8247	0,5003	1
24,7801	69,5777	0,8268	0,5003	1
24,8448	69,7164	0,8289	0,5003	1
24,9095	69,8712	0,831	0,5003	1
24,9742	70,031	0,8332	0,5003	1
25,0389	70,1752	0,8353	0,5003	1
25,1036	70,3085	0,8375	0,5003	1
25,1683	70,4319	0,8397	0,5003	1
25,233	70,5552	0,8419	0,5003	1
25,2977	70,6783	0,844	0,5003	1
25,3624	70,7852	0,8462	0,5003	1
25,4271	70,8862	0,8483	0,5003	1
25,4918	70,9801	0,8505	0,5003	1
25,5565	71,0737	0,8526	0,5003	1
25,6212	71,1656	0,8548	0,5003	1
25,6859	71,2539	0,857	0,5003	1
25,7506	71,3499	0,8591	0,5003	1
25,8153	71,4504	0,8613	0,5003	1
25,88	71,5586	0,8635	0,5003	1
25,9447	71,6873	0,8656	0,5003	1
26,0094	71,8249	0,8677	0,5003	1
26,0741	71,9617	0,8699	0,5003	1
26,1388	72,085	0,8721	0,5003	1
26,2035	72,1987	0,8742	0,5003	1
26,2682	72,3037	0,8764	0,5003	1
26,3329	72,4189	0,8785	0,5003	1
26,3976	72,544	0,8807	0,5003	1
26,4623	72,6644	0,8828	0,5003	1
26,527	72,7827	0,885	0,5003	1
26,5917	72,8982	0,8872	0,5003	1
26,6564	73,0236	0,8893	0,5003	1
26,7211	73,1483	0,8914	0,5003	1
26,7858	73,2688	0,8936	0,5003	1
26,8505	73,3837	0,8958	0,5004	1
26,9152	73,4966	0,898	0,5004	1
26,9799	73,6085	0,9001	0,5004	1
27,0446	73,7125	0,9022	0,5004	1
27,1093	73,8129	0,9044	0,5004	1
27,174	73,9126	0,9066	0,5004	1
27,2387	74,0174	0,9087	0,5004	1
27,3034	74,126	0,9108	0,5004	1
27,3681	74,2409	0,913	0,5003	1
27,4328	74,3446	0,9152	0,5003	1
27,4975	74,4373	0,9174	0,5003	1
27,5622	74,5139	0,9196	0,5003	1
27,6269	74,5891	0,9217	0,5003	1
27,6916	74,6635	0,9239	0,5003	1
27,7563	74,741	0,926	0,5003	1
27,821	74,8254	0,9282	0,5003	1
27,8857	74,9231	0,9303	0,5003	1
27,9504	75,0259	0,9324	0,5003	1
28,0151	75,1305	0,9346	0,5003	1
28,0798	75,2361	0,9368	0,5003	1
28,1445	75,3375	0,9389	0,5003	1
28,2092	75,4383	0,9411	0,5003	1
28,2739	75,5459	0,9432	0,5003	1
28,3386	75,6554	0,9453	0,5003	1
28,4033	75,7662	0,9476	0,5003	1
28,468	75,8782	0,9497	0,5003	1
28,5327	75,9857	0,9518	0,5003	1
28,5974	76,0887	0,954	0,5003	1
28,6621	76,1895	0,9562	0,5003	1
28,7268	76,2876	0,9584	0,5003	1
28,7915	76,3819	0,9605	0,5003	1
28,8562	76,4659	0,9626	0,5003	1
28,9209	76,5461	0,9648	0,5003	1
28,9856	76,6217	0,967	0,5003	1
29,0503	76,7114	0,9691	0,5002	1
29,115	76,8081	0,9712	0,5002	1
29,1797	76,9152	0,9734	0,5002	1
29,2444	77,0089	0,9755	0,5003	1
29,3091	77,0964	0,9777	0,5003	1
29,3738	77,1842	0,9799	0,5003	1
29,4385	77,2867	0,9821	0,5003	1
29,5032	77,3992	0,9841	0,5003	1
29,5679	77,5107	0,9864	0,5003	1
29,6326	77,6156	0,9885	0,5003	2
29,6973	77,714	0,9907	0,5003	2
29,762	77,7904	0,9928	0,5003	2
29,8267	77,8689	0,995	0,5003	2
29,8914	77,9518	0,9972	0,5003	2
29,9561	78,0536	0,9989	0,5003	2
30,0208	78,1507	1,0002	0,5003	2
30,0855	78,2316	1,0009	0,5003	2
30,1502	78,2995	1,0011	0,5003	2
30,2149	78,3649	1,0011	0,5003	2
30,2796	78,435	1,001	0,5003	2
30,3443	78,5177	1,0011	0,5004	2
30,409	78,608	1,0011	0,5004	2
30,4737	78,7093	1,001	0,5003	2
30,5384	78,795	1,0011	0,5003	2
30,6031	78,8695	1,0011	0,5003	2
30,6678	78,9313	1,0011	0,5003	2
30,7325	78,9912	1,0011	0,5003	2
30,7972	79,0494	1,0011	0,5003	2
30,8619	79,0969	1,0011	0,5003	2
30,9266	79,1434	1,0011	0,5003	2
30,9913	79,189	1,001	0,5003	2
31,056	79,244	1,0011	0,5003	2
31,1207	79,2962	1,0011	0,5003	2
31,1854	79,3394	1,001	0,5003	2
31,2501	79,3731	1,0011	0,5003	2
31,3148	79,4022	1,0011	0,5003	2
31,3795	79,4254	1,0011	0,5003	2
31,4442	79,4499	1,0011	0,5003	2
31,5089	79,4759	1,0011	0,5003	2
31,5736	79,507	1,0011	0,5003	2
31,6383	79,5364	1,0011	0,5003	2
31,703	79,5643	1,0011	0,5003	2
31,7677	79,5866	1,0011	0,5003	2
31,8324	79,6021	1,0011	0,5003	2
31,8971	79,6109	1,0011	0,5003	2
31,9618	79,6291	1,0011	0,5003	2
32,0265	79,6477	1,0011	0,5003	2
32,0912	79,6664	1,0011	0,5003	2
32,1559	79,6909	1,0011	0,5003	2
32,2206	79,7109	1,0011	0,5003	2
32,2853	79,7193	1,0011	0,5003	2
32,35	79,7333	1,0011	0,5003	2
32,4147	79,7517	1,0011	0,5003	2
32,4794	79,7793	1,0011	0,5003	2
32,5441	79,8037	1,0011	0,5003	2
32,6088	79,8263	1,0011	0,5003	2
32,6735	79,8466	1,0011	0,5002	2
32,7382	79,8654	1,0011	0,5002	2
32,8029	79,8831	1,001	0,5002	2
32,8676	79,9008	1,0011	0,5003	2
32,9323	79,9161	1,0011	0,5003	2
32,997	79,929	1,001	0,5003	2
33,0617	79,9405	1,0011	0,5003	2
33,1264	79,9521	1,0011	0,5003	2
33,1911	79,964	1,0011	0,5002	2
33,2558	79,9713	1,0011	0,5002	2
33,3205	79,9774	1,0011	0,5002	2
33,3852	79,9828	1,0011	0,5002	2
33,4499	79,9857	1,0011	0,5002	2
33,5146	79,9901	1,0011	0,5002	2
33,5793	80,0028	1,0011	0,5003	2
33,644	80,0217	1,0011	0,5002	2
33,7087	80,0445	1,0011	0,5002	2
33,7734	80,0726	1,0011	0,5002	2
33,8381	80,0941	1,0011	0,5002	2
33,9028	80,1113	1,0011	0,5002	2
33,9675	80,1333	1,0011	0,5003	2
34,0322	80,1511	1,0011	0,5003	2
34,0969	80,1647	1,001	0,5003	2
34,1616	80,1745	1,001	0,5003	2
34,2263	80,1854	1,001	0,5003	2
34,291	80,1982	1,001	0,5003	2
34,3557	80,2031	1,0011	0,5003	2
34,4204	80,2113	1,0011	0,5003	2
34,4851	80,2296	1,001	0,5003	2
34,5498	80,2435	1,001	0,5002	2
34,6145	80,256	1,0011	0,5002	3
34,6792	80,2678	1,001	0,5002	3
34,7439	80,2759	1,001	0,5002	3
34,8086	80,2817	1,001	0,5002	3
34,8733	80,2825	1,0011	0,5003	3
34,938	80,2879	1,0009	0,5003	3
35,0027	80,2958	1,0004	0,5003	3
35,0674	80,2848	0,9988	0,5003	3
35,1321	80,2726	0,997	0,5003	3
35,1968	80,2592	0,9949	0,5002	3
35,2615	80,2436	0,9927	0,5002	3
35,3262	80,2281	0,9905	0,5002	3
35,3909	80,213	0,9884	0,5002	3
35,4556	80,219	0,9863	0,5002	3
35,5203	80,23	0,9841	0,5003	3
35,585	80,2445	0,982	0,5003	3
35,6497	80,2419	0,9798	0,5003	3
35,7144	80,2342	0,9776	0,5003	3
35,7791	80,2269	0,9754	0,5002	3
35,8438	80,2167	0,9733	0,5002	3
35,9085	80,2045	0,9712	0,5002	3
35,9732	80,1882	0,969	0,5002	3
36,0379	80,173	0,9668	0,5003	3
36,1026	80,1587	0,9647	0,5003	3
36,1673	80,1434	0,9625	0,5002	3
36,232	80,1295	0,9603	0,5002	3
36,2967	80,1169	0,9582	0,5002	3
36,3614	80,1097	0,9561	0,5002	3
36,4261	80,1023	0,9539	0,5002	3
36,4908	80,0944	0,9517	0,5003	3
36,5555	80,0859	0,9496	0,5003	3
36,6202	80,0786	0,9474	0,5003	3
36,6849	80,0742	0,9452	0,5003	3
36,7496	80,0698	0,9431	0,5003	3
36,8143	80,0667	0,941	0,5003	3
36,879	80,0687	0,9388	0,5003	3
36,9437	80,06	0,9366	0,5003	3
37,0084	80,0432	0,9344	0,5003	3
37,0731	80,0066	0,9324	0,5003	3
37,1378	79,9673	0,9302	0,5003	3
37,2025	79,9267	0,9279	0,5003	3
37,2672	79,9029	0,9258	0,5003	3
37,3319	79,8814	0,9237	0,5003	3
37,3966	79,862	0,9216	0,5003	3
37,4613	79,839	0,9194	0,5003	3
37,526	79,8159	0,9172	0,5003	3
37,5907	79,7929	0,9151	0,5003	3
37,6554	79,7801	0,9129	0,5003	3
37,7201	79,7645	0,9107	0,5002	3
37,7848	79,7387	0,9086	0,5002	3
37,8495	79,719	0,9065	0,5002	3
37,9142	79,7	0,9043	0,5002	3
37,9789	79,6768	0,9021	0,5002	3
38,0436	79,66	0,9	0,5003	3
38,1083	79,6459	0,8979	0,5003	3
38,173	79,6298	0,8956	0,5003	3
38,2377	79,6109	0,8934	0,5003	3
38,3024	79,5902	0,8914	0,5003	3
38,3671	79,5798	0,8892	0,5003	3
38,4318	79,5688	0,887	0,5003	3
38,4965	79,5572	0,8848	0,5003	3
38,5612	79,5384	0,8827	0,5003	3
38,6259	79,5166	0,8806	0,5003	3
38,6906	79,4909	0,8784	0,5002	3
38,7553	79,4703	0,8762	0,5003	3
38,82	79,4506	0,874	0,5003	3
38,8847	79,431	0,8719	0,5003	3
38,9494	79,414	0,8698	0,5003	3
39,0141	79,3959	0,8676	0,5003	3
39,0788	79,3705	0,8655	0,5003	3
39,1435	79,345	0,8633	0,5003	3
39,2082	79,3201	0,8611	0,5003	3
39,2729	79,2987	0,859	0,5003	3
39,3376	79,2802	0,8568	0,5003	3
39,4023	79,2638	0,8547	0,5003	3
39,467	79,2456	0,8525	0,5003	3
39,5317	79,2278	0,8504	0,5003	3
39,5964	79,2106	0,8482	0,5003	3
39,6611	79,1834	0,846	0,5003	3
39,7258	79,1586	0,8438	0,5003	3
39,7905	79,1382	0,8417	0,5003	3
39,8552	79,1258	0,8396	0,5003	3
39,9199	79,1106	0,8374	0,5003	3
39,9846	79,086	0,8353	0,5003	3
40,0493	79,0616	0,8331	0,5003	3
40,114	79,0384	0,8309	0,5003	3
40,1787	79,0191	0,8288	0,5003	3
40,2434	79,0012	0,8266	0,5004	3
40,3081	78,9832	0,8245	0,5004	3
40,3728	78,9599	0,8223	0,5003	3
40,4375	78,9383	0,8202	0,5003	3
40,5022	78,9177	0,818	0,5004	3
40,5669	78,8949	0,8159	0,5003	3
40,6316	78,8682	0,8137	0,5003	3
40,6963	78,8373	0,8115	0,5003	3
40,761	78,8197	0,8094	0,5003	3
40,8257	78,8055	0,8073	0,5002	3
40,8904	78,795	0,805	0,5002	3
40,9551	78,7758	0,8029	0,5003	3
41,0198	78,754	0,8008	0,5003	3
41,0845	78,7295	0,7986	0,5003	3
41,1492	78,7183	0,7964	0,5003	3
41,2139	78,7079	0,7942	0,5003	3
41,2786	78,6857	0,7921	0,5003	3
41,3433	78,6592	0,7899	0,5003	3
41,408	78,6315	0,7878	0,5003	3
41,4727	78,6111	0,7856	0,5003	3
41,5374	78,5868	0,7835	0,5003	3
41,6021	78,5596	0,7814	0,5003	3
41,6668	78,535	0,7792	0,5003	3
41,7315	78,5093	0,777	0,5003	3
41,7962	78,4825	0,7748	0,5004	3
41,8609	78,445	0,7727	0,5004	3
41,9256	78,4084	0,7706	0,5004	3
41,9903	78,3744	0,7683	0,5003	3
42,055	78,3519	0,7662	0,5003	3
42,1197	78,3327	0,7641	0,5003	3
42,1844	78,3163	0,7619	0,5004	3
42,2491	78,2963	0,7597	0,5004	3
42,3138	78,2721	0,7576	0,5004	3
42,3785	78,2367	0,7554	0,5004	3
42,4432	78,2019	0,7533	0,5003	3
42,5079	78,1699	0,7511	0,5003	3
42,5726	78,1553	0,749	0,5003	3
42,6373	78,1407	0,7468	0,5003	3
42,702	78,1259	0,7446	0,5003	3
42,7667	78,1044	0,7425	0,5003	3
42,8314	78,0826	0,7404	0,5004	3
42,8961	78,0605	0,7382	0,5004	3
42,9608	78,0397	0,7361	0,5004	3
43,0255	78,0211	0,7339	0,5004	3
43,0902	78,0058	0,7318	0,5004	3
43,1549	77,9779	0,7296	0,5004	3
43,2196	77,9471	0,7274	0,5004	3
43,2843	77,9149	0,7252	0,5004	3
43,349	77,8888	0,723	0,5004	3
43,4137	77,8666	0,7209	0,5004	3
43,4784	77,8518	0,7188	0,5004	3
43,5431	77,8293	0,7166	0,5003	3
43,6078	77,8024	0,7145	0,5003	3
43,6725	77,771	0,7123	0,5003	3
43,7372	77,7157	0,7101	0,5003	3
43,8019	77,6425	0,7079	0,5003	3
43,8666	77,5657	0,7058	0,5003	3
43,9313	77,5214	0,7037	0,5004	3
43,996	77,5119	0,7015	0,5004	3
44,0607	77,5126	0,6994	0,5003	3
44,1254	77,5088	0,6972	0,5003	3
44,1901	77,4971	0,6951	0,5003	3
44,2548	77,4843	0,6929	0,5003	3
44,3195	77,4722	0,6907	0,5003	3
44,3842	77,4623	0,6886	0,5003	3
44,4489	77,4434	0,6864	0,5003	3
44,5136	77,4187	0,6843	0,5003	3
44,5783	77,3836	0,6821	0,5003	3
44,643	77,3553	0,6799	0,5003	3
44,7077	77,332	0,6778	0,5003	3
44,7724	77,3211	0,6756	0,5003	3
44,8371	77,3105	0,6735	0,5003	3
44,9018	77,2998	0,6714	0,5003	3
44,9665	77,2745	0,6692	0,5003	3
45,0312	77,2482	0,667	0,5003	3
45,0959	77,2208	0,6648	0,5003	3
45,1606	77,1894	0,6627	0,5003	3
45,2253	77,1612	0,6605	0,5003	3
45,29	77,1382	0,6583	0,5003	3
45,3547	77,1165	0,6562	0,5003	3
45,4194	77,0947	0,654	0,5003	3
45,4841	77,0723	0,6519	0,5003	3
45,5488	77,0528	0,6498	0,5003	3
45,6135	77,0342	0,6476	0,5003	3
45,6782	77,0153	0,6455	0,5003	3
45,7429	76,9889	0,6433	0,5003	3
45,8076	76,9588	0,6412	0,5003	3
45,8723	76,9289	0,639	0,5003	3
45,937	76,898	0,6368	0,5003	3
46,0017	76,8666	0,6346	0,5003	3
46,0664	76,848	0,6325	0,5003	3
46,1311	76,8299	0,6303	0,5003	3
46,1958	76,8123	0,6281	0,5003	3
46,2605	76,7988	0,626	0,5003	3
46,3252	76,7819	0,6239	0,5003	3
46,3899	76,7592	0,6217	0,5003	3
46,4546	76,7433	0,6196	0,5003	3
46,5193	76,728	0,6174	0,5003	3
46,584	76,7115	0,6153	0,5003	3
46,6487	76,6801	0,6131	0,5003	3
46,7134	76,6435	0,6109	0,5003	3
46,7781	76,6061	0,6088	0,5003	3
46,8428	76,5799	0,6066	0,5003	3
46,9075	76,5609	0,6045	0,5003	3
46,9722	76,553	0,6024	0,5003	3
47,0369	76,5331	0,6002	0,5003	3
47,1016	76,5042	0,5979	0,5003	3
47,1663	76,4794	0,5958	0,5003	3
47,231	76,4574	0,5937	0,5003	3
47,2957	76,4383	0,5915	0,5003	3
47,3604	76,4173	0,5894	0,5003	3
47,4251	76,3986	0,5872	0,5003	3
47,4898	76,3839	0,5851	0,5003	3
47,5545	76,3623	0,5828	0,5003	3
47,6192	76,3375	0,5807	0,5003	3
47,6839	76,3085	0,5786	0,5003	3
47,7486	76,2783	0,5764	0,5003	3
47,8133	76,2478	0,5742	0,5003	3
47,878	76,2181	0,5721	0,5003	3
47,9427	76,1971	0,57	0,5003	3
48,0074	76,1812	0,5678	0,5003	3
48,0721	76,169	0,5656	0,5003	3
48,1368	76,1448	0,5635	0,5003	3
48,2015	76,1118	0,5614	0,5003	3
48,2662	76,0891	0,5592	0,5003	3
48,3309	76,0684	0,5571	0,5003	3
48,3956	76,0498	0,5549	0,5003	3
48,4603	76,014	0,5527	0,5003	3
48,525	75,9827	0,5506	0,5003	3
48,5897	75,9604	0,5484	0,5003	3
48,6544	75,9362	0,5463	0,5003	3
48,7191	75,9095	0,5441	0,5003	3
48,7838	75,8776	0,5419	0,5003	3
48,8485	75,8538	0,5398	0,5003	3
48,9132	75,833	0,5377	0,5003	3
48,9779	75,8128	0,5354	0,5003	3
49,0426	75,7977	0,5333	0,5003	3
49,1073	75,7833	0,5311	0,5003	3
49,172	75,7529	0,529	0,5003	3
49,2367	75,7213	0,5269	0,5003	3
49,3014	75,6888	0,5247	0,5003	3
49,3661	75,6552	0,5225	0,5003	3
49,4308	75,6187	0,5204	0,5003	3
49,4955	75,579	0,5182	0,5003	3
49,5602	75,5444	0,516	0,5003	3
49,6249	75,5114	0,5139	0,5003	3
49,6896	75,4806	0,5117	0,5003	3
49,7543	75,4551	0,5096	0,5003	3
49,819	75,4312	0,5074	0,5003	3
49,8837	75,4091	0,5053	0,5003	3
49,9484	75,3832	0,5031	0,5003	3
50,0131	75,3565	0,501	0,5003	3
50,0778	75,3308	0,4989	0,5003	3
50,1425	75,3099	0,4967	0,5003	3
50,2072	75,2922	0,4945	0,5003	3
50,2719	75,2792	0,4923	0,5003	3
50,3366	75,252	0,4902	0,5003	3
50,4013	75,2141	0,4881	0,5003	3
50,466	75,1799	0,4858	0,5003	3
50,5307	75,1524	0,4837	0,5003	3
50,5954	75,1323	0,4816	0,5003	3
50,6601	75,1037	0,4794	0,5003	3
50,7248	75,0739	0,4772	0,5003	3
50,7895	75,0435	0,4751	0,5004	3
50,8542	75,0194	0,4729	0,5004	3
50,9189	74,9957	0,4708	0,5003	3
50,9836	74,9699	0,4686	0,5003	3
51,0483	74,9417	0,4665	0,5003	3
51,113	74,9131	0,4644	0,5003	3
51,1777	74,8862	0,4622	0,5003	3
51,2424	74,8587	0,46	0,5003	3
51,3071	74,8308	0,4578	0,5003	3
51,3718	74,8024	0,4557	0,5003	3
51,4365	74,7742	0,4535	0,5004	3
51,5012	74,7463	0,4514	0,5004	3
51,5659	74,7185	0,4492	0,5003	3
51,6306	74,6942	0,447	0,5003	3
51,6953	74,6738	0,4449	0,5003	3
51,76	74,6482	0,4428	0,5003	3
51,8247	74,6247	0,4406	0,5003	3
51,8894	74,6056	0,4385	0,5003	3
51,9541	74,5803	0,4363	0,5003	3
52,0188	74,5553	0,4341	0,5003	3
52,0835	74,5338	0,4319	0,5003	3
52,1482	74,5089	0,4298	0,5003	3
52,2129	74,4823	0,4277	0,5003	3
52,2776	74,4538	0,4255	0,5003	3
52,3423	74,422	0,4233	0,5003	3
52,407	74,3893	0,4212	0,5003	3
52,4717	74,3644	0,4191	0,5003	3
52,5364	74,3349	0,4169	0,5003	3
52,6011	74,3019	0,4147	0,5003	3
52,6658	74,271	0,4125	0,5003	3
52,7305	74,2438	0,4104	0,5003	3
52,7952	74,221	0,4083	0,5002	3
52,8599	74,1976	0,406	0,5002	3
52,9246	74,1749	0,4039	0,5002	3
52,9893	74,1534	0,4018	0,5003	3
53,054	74,1254	0,3997	0,5003	3
53,1187	74,0945	0,3975	0,5003	3
53,1834	74,0595	0,3953	0,5003	3
53,2481	74,0237	0,3932	0,5003	3
53,3128	73,989	0,391	0,5003	3
53,3775	73,9604	0,3888	0,5003	3
53,4422	73,9297	0,3867	0,5003	3
53,5069	73,8978	0,3846	0,5003	3
53,5716	73,8642	0,3824	0,5002	3
53,6363	73,8326	0,3802	0,5002	3
53,701	73,8023	0,378	0,5002	3
53,7657	73,7446	0,3759	0,5002	3
53,8304	73,6781	0,3737	0,5002	3
53,8951	73,6018	0,3715	0,5002	3
53,9598	73,5519	0,3694	0,5002	3
54,0245	73,5083	0,3673	0,5002	3
54,0892	73,4715	0,3651	0,5002	3
54,1539	73,4448	0,3629	0,5002	3
54,2186	73,4203	0,3608	0,5002	3
54,2833	73,3966	0,3586	0,5002	3
54,348	73,3742	0,3565	0,5002	3
54,4127	73,3522	0,3543	0,5002	3
54,4774	73,3298	0,3522	0,5002	3
54,5421	73,3064	0,35	0,5002	3
54,6068	73,2826	0,3479	0,5002	3
54,6715	73,2605	0,3457	0,5003	3
54,7362	73,2336	0,3435	0,5003	3
54,8009	73,203	0,3413	0,5003	3
54,8656	73,1784	0,3392	0,5003	3
54,9303	73,1554	0,337	0,5003	3
54,995	73,1343	0,3349	0,5003	3
55,0597	73,1087	0,3328	0,5002	3
55,1244	73,0858	0,3306	0,5003	3
55,1891	73,0679	0,3284	0,5003	3
55,2538	73,0348	0,3263	0,5003	3
55,3185	72,9984	0,3241	0,5003	3
55,3832	72,9616	0,3219	0,5003	3
55,4479	72,9338	0,3198	0,5002	3
55,5126	72,9071	0,3177	0,5002	3
55,5773	72,8722	0,3155	0,5002	3
55,642	72,837	0,3133	0,5002	3
55,7067	72,8029	0,3111	0,5002	3
55,7714	72,779	0,3091	0,5002	3
55,8361	72,7549	0,3069	0,5002	3
55,9008	72,7304	0,3047	0,5002	3
55,9655	72,6892	0,3026	0,5003	3
56,0302	72,6492	0,3005	0,5003	3
56,0949	72,6105	0,2983	0,5003	3
56,1596	72,5767	0,2961	0,5003	3
56,2243	72,5429	0,294	0,5003	3
56,289	72,5083	0,2918	0,5003	3
56,3537	72,4784	0,2896	0,5003	3
56,4184	72,4493	0,2874	0,5002	3
56,4831	72,4198	0,2853	0,5002	3
56,5478	72,3504	0,2832	0,5002	3
56,6125	72,2624	0,281	0,5002	3
56,6772	72,1552	0,2788	0,5002	3
56,7419	72,0896	0,2767	0,5002	3
56,8066	72,0475	0,2745	0,5002	3
56,8713	72,0132	0,2724	0,5002	3
56,936	71,9882	0,2702	0,5002	3
57,0007	71,9707	0,2681	0,5002	3
57,0654	71,9469	0,2659	0,5002	3
57,1301	71,9175	0,2638	0,5002	3
57,1948	71,8815	0,2617	0,5003	3
57,2595	71,8481	0,2595	0,5003	3
57,3242	71,8176	0,2573	0,5003	3
57,3889	71,7917	0,2551	0,5003	3
57,4536	71,7619	0,253	0,5003	3
57,5183	71,7347	0,2509	0,5003	3
57,583	71,7157	0,2487	0,5003	3
57,6477	71,6918	0,2465	0,5003	3
57,7124	71,6632	0,2444	0,5002	3
57,7771	71,622	0,2422	0,5002	3
57,8418	71,5796	0,2401	0,5002	3
57,9065	71,5377	0,2379	0,5002	3
57,9712	71,5063	0,2357	0,5002	3
58,0359	71,4758	0,2336	0,5003	3
58,1006	71,4458	0,2314	0,5003	3
58,1653	71,4078	0,2292	0,5002	3
58,23	71,367	0,2271	0,5002	3
58,2947	71,323	0,225	0,5002	3
58,3594	71,2824	0,2228	0,5002	3
58,4241	71,2436	0,2207	0,5002	3
58,4888	71,2076	0,2185	0,5003	3
58,5535	71,1665	0,2163	0,5003	3
58,6182	71,1275	0,2142	0,5003	3
58,6829	71,0963	0,212	0,5003	3
58,7476	71,054	0,2099	0,5003	3
58,8123	70,999	0,2077	0,5003	3
58,877	70,9063	0,2055	0,5003	3
58,9417	70,8259	0,2034	0,5003	3
59,0064	70,7559	0,2013	0,5003	3
59,0711	70,7188	0,1991	0,5003	3
59,1358	70,6753	0,197	0,5003	3
59,2005	70,6266	0,1948	0,5003	3
59,2652	70,5871	0,1926	0,5003	3
59,3299	70,5465	0,1905	0,5003	3
59,3946	70,5047	0,1883	0,5002	3
59,4593	70,4499	0,1862	0,5002	3
59,524	70,399	0,184	0,5002	3
59,5887	70,3565	0,1818	0,5003	3
59,6534	70,2968	0,1797	0,5003	3
59,7181	70,2196	0,1776	0,5003	3
59,7828	70,1068	0,1754	0,5003	3
59,8475	69,9965	0,1732	0,5003	3
59,9122	69,8978	0,1711	0,5003	3
59,9769	69,8452	0,1689	0,5003	3
60,0416	69,7931	0,1667	0,5003	3
60,1063	69,7429	0,1645	0,5002	3
60,171	69,7072	0,1624	0,5002	3
60,2357	69,6742	0,1603	0,5002	3
60,3004	69,6432	0,1581	0,5003	3
60,3651	69,5975	0,1559	0,5002	3
60,4298	69,5567	0,1537	0,5002	3
60,4945	69,5217	0,1517	0,5002	3
60,5592	69,4785	0,1495	0,5002	3
60,6239	69,4348	0,1474	0,5002	3
60,6886	69,3916	0,1452	0,5002	3
60,7533	69,3466	0,143	0,5003	3
60,818	69,3012	0,1409	0,5003	3
60,8827	69,2558	0,1387	0,5003	3
60,9474	69,2051	0,1365	0,5003	3
61,0121	69,1536	0,1344	0,5003	3
61,0768	69,1068	0,1323	0,5003	3
61,1415	69,0411	0,1301	0,5003	3
61,2062	68,9628	0,1279	0,5003	3
61,2709	68,8651	0,1258	0,5003	3
61,3356	68,789	0,1236	0,5003	3
61,4003	68,7306	0,1215	0,5003	3
61,465	68,6755	0,1193	0,5003	3
61,5297	68,6238	0,1171	0,5003	3
61,5944	68,5761	0,1151	0,5003	3
61,6591	68,5121	0,1129	0,5003	3
61,7238	68,4328	0,1107	0,5002	3
61,7885	68,3298	0,1085	0,5002	3
61,8532	68,2359	0,1064	0,5002	3
61,9179	68,1453	0,1042	0,5002	3
61,9826	68,0585	0,1021	0,5002	3
62,0473	67,9696	0,1	0,5003	3
62,112	67,8828	0,0979	0,5003	3
62,1767	67,8077	0,0956	0,5003	3
62,2414	67,7306	0,0934	0,5002	3
62,3061	67,6553	0,0912	0,5003	3
62,3708	67,6078	0,0891	0,5003	3
62,4355	67,5519	0,087	0,5003	3
62,5002	67,489	0,0847	0,5003	3
62,5649	67,4223	0,0827	0,5003	3
62,6296	67,3465	0,0806	0,5003	3
62,6943	67,2597	0,0784	0,5003	3
62,759	67,1838	0,0762	0,5003	3
62,8237	67,1116	0,074	0,5003	3
62,8884	67,0442	0,0719	0,5003	3
62,9531	66,984	0,0697	0,5003	3
63,0178	66,9232	0,0676	0,5003	3
63,0825	66,8564	0,0654	0,5003	3
63,1472	66,7767	0,0633	0,5003	3
63,2119	66,6926	0,0611	0,5003	3
63,2766	66,6099	0,059	0,5003	3
63,3413	66,5263	0,0568	0,5003	3
63,406	66,4433	0,0546	0,5003	3
63,4707	66,37	0,0525	0,5003	3
63,5354	66,2836	0,0503	0,5003	3
63,6001	66,1864	0,0481	0,5003	3
63,6648	66,0982	0,046	0,5003	3
63,7295	66,0093	0,0439	0,5003	3
63,7942	65,9196	0,0417	0,5003	3
63,8589	65,8276	0,0395	0,5003	3
63,9236	65,737	0,0374	0,5003	3
63,9883	65,6492	0,0353	0,5003	3
64,053	65,5725	0,0331	0,5003	3
64,1177	65,4911	0,0309	0,5003	3
64,1824	65,3907	0,0288	0,5003	3
64,2471	65,2993	0,0267	0,5003	3
64,3118	65,2071	0,0245	0,5003	3
64,3765	65,0954	0,0223	0,5003	3
64,4412	64,9777	0,0202	0,5003	3
64,5059	64,8572	0,018	0,5003	3
64,5706	64,7435	0,0159	0,5003	3
64,6353	64,6292	0,0137	0,5003	4
